t_us,t_s,t_rel,ax,ay,az,gx,gy,gz
63719368868,63719.368868,0.000000,0.780,-0.090,0.870,4.020,4.980,6.930
63719377245,63719.377245,0.008377,0.730,-0.090,0.730,9.920,1.300,9.920
63719383149,63719.383149,0.014281,0.710,-0.080,0.770,16.020,-1.240,12.210
63719389122,63719.389122,0.020254,0.640,-0.030,0.740,25.710,-2.560,14.660
63719395158,63719.395158,0.026290,0.710,-0.110,0.720,28.030,-7.530,12.410
63719402297,63719.402297,0.033429,0.750,0.030,0.720,19.100,-20.780,-2.820
63719408175,63719.408175,0.039307,0.750,0.060,0.680,14.890,-34.490,-18.050
63719414196,63719.414196,0.045328,0.760,0.040,0.700,9.690,-48.120,-33.600
63719420585,63719.420585,0.051717,0.770,0.000,0.710,2.090,-59.130,-44.050
63719427192,63719.427192,0.058324,0.760,-0.050,0.720,-0.490,-66.460,-47.660
63719433182,63719.433182,0.064314,0.750,-0.030,0.740,0.810,-69.330,-46.670
63719439188,63719.439188,0.070320,0.750,-0.030,0.790,4.230,-68.530,-40.660
63719446056,63719.446056,0.077188,0.800,-0.050,0.810,12.090,-64.350,-29.070
63719452250,63719.452250,0.083382,0.840,-0.070,0.840,18.660,-57.600,-15.370
63719458326,63719.458326,0.089458,0.890,-0.080,0.860,24.810,-48.170,-1.080
63719464199,63719.464199,0.095331,0.930,-0.060,0.850,28.150,-37.150,13.790
63719471178,63719.471178,0.102310,0.960,-0.110,0.860,29.790,-22.150,32.170
63719478252,63719.478252,0.109384,0.940,-0.120,0.860,29.570,-4.790,47.970
63719484373,63719.484373,0.115505,0.910,-0.110,0.820,27.150,9.850,56.500
63719491154,63719.491154,0.122286,0.860,-0.050,0.790,22.920,23.300,59.630
63719497174,63719.497174,0.128306,0.830,-0.030,0.750,20.850,32.730,55.040
63719503187,63719.503187,0.134319,0.790,0.010,0.720,19.300,39.440,45.910
63719509269,63719.509269,0.140401,0.780,0.010,0.700,18.170,43.180,35.250
63719517191,63719.517191,0.148323,0.750,0.000,0.640,14.700,42.810,23.300
63719523175,63719.523175,0.154307,0.730,-0.020,0.610,11.600,39.830,17.710
63719529185,63719.529185,0.160317,0.720,-0.030,0.630,7.160,35.500,14.630
63719535189,63719.535189,0.166321,0.710,-0.040,0.660,1.590,30.670,14.430
63719541179,63719.541179,0.172311,0.690,-0.070,0.690,-2.500,25.950,15.770
63719547218,63719.547218,0.178350,0.670,-0.100,0.720,-4.140,21.240,17.220
63719553976,63719.553976,0.185108,0.650,-0.130,0.720,-4.090,15.440,18.840
63719560271,63719.560271,0.191403,0.650,-0.120,0.740,-2.120,9.650,16.950
63719567278,63719.567278,0.198410,0.690,-0.120,0.770,1.010,4.560,11.340
63719573187,63719.573187,0.204319,0.740,-0.110,0.770,3.240,1.130,4.960
63719580183,63719.580183,0.211315,0.780,-0.090,0.780,5.160,-0.490,-3.250
63719586156,63719.586156,0.217288,0.810,-0.090,0.750,6.400,1.040,-8.140
63719593183,63719.593183,0.224315,0.840,-0.110,0.770,7.540,5.020,-7.680
63719599352,63719.599352,0.230484,0.840,-0.090,0.710,8.560,9.800,-4.690
63719606641,63719.606641,0.237773,0.840,-0.070,0.730,8.490,15.340,1.570
63719613193,63719.613193,0.244325,0.810,-0.050,0.710,8.810,20.060,4.850
63719619169,63719.619169,0.250301,0.830,-0.020,0.730,8.310,23.770,7.370
63719625627,63719.625627,0.256759,0.930,0.040,0.770,2.150,30.730,9.950
63719632172,63719.632172,0.263304,0.900,0.020,0.710,-7.420,38.850,12.960
63719638175,63719.638175,0.269307,0.860,-0.050,0.690,-15.360,43.560,16.780
63719645176,63719.645176,0.276308,0.850,-0.060,0.740,-24.630,48.580,20.380
63719651593,63719.651593,0.282725,0.860,-0.070,0.750,-32.990,53.010,22.660
63719658215,63719.658215,0.289347,0.850,-0.090,0.810,-39.180,57.400,22.120
63719664866,63719.664866,0.295998,0.820,-0.110,0.790,-45.100,61.400,23.180
63719671201,63719.671201,0.302333,0.740,-0.060,0.770,-51.130,62.670,22.030
63719678190,63719.678190,0.309322,0.720,-0.010,0.790,-57.420,63.560,18.960
63719684185,63719.684185,0.315317,0.700,-0.090,0.800,-58.660,65.510,12.990
63719690876,63719.690876,0.322008,0.640,-0.130,0.770,-57.560,64.870,8.110
63719697164,63719.697164,0.328296,0.660,-0.130,0.760,-53.980,62.080,4.690
63719703615,63719.703615,0.334747,0.620,-0.160,0.800,-50.470,59.280,4.270
63719711191,63719.711191,0.342323,0.550,-0.210,0.830,-41.770,51.650,4.660
63719717172,63719.717172,0.348304,0.560,-0.210,0.820,-32.660,44.340,3.210
63719724183,63719.724183,0.355315,0.530,-0.200,0.860,-17.820,34.000,2.310
63719730238,63719.730238,0.361370,0.530,-0.240,0.830,-3.070,24.210,3.570
63719737186,63719.737186,0.368318,0.570,-0.220,0.800,12.150,12.020,5.220
63719743179,63719.743179,0.374311,0.610,-0.200,0.800,21.050,2.760,4.080
63719749192,63719.749192,0.380324,0.650,-0.180,0.770,25.110,-4.640,2.520
63719756857,63719.756857,0.387989,0.720,-0.170,0.810,24.060,-8.380,1.680
63719763190,63719.763190,0.394322,0.770,-0.160,0.850,17.240,-6.690,2.120
63719769181,63719.769181,0.400313,0.800,-0.160,0.860,9.940,-2.610,2.000
63719777369,63719.777369,0.408501,0.770,-0.180,0.860,3.080,3.690,0.310
63719783279,63719.783279,0.414411,0.740,-0.200,0.820,0.470,6.410,-1.850
63719789187,63719.789187,0.420319,0.680,-0.200,0.870,-1.390,8.890,-3.790
63719795157,63719.795157,0.426289,0.650,-0.180,0.850,-2.820,10.950,-6.700
63719801119,63719.801119,0.432251,0.650,-0.150,0.840,-3.070,11.220,-9.730
63719807122,63719.807122,0.438254,0.670,-0.170,0.820,-1.630,10.110,-11.440
63719813150,63719.813150,0.444282,0.700,-0.180,0.790,0.700,7.620,-10.460
63719821188,63719.821188,0.452320,0.730,-0.150,0.790,4.560,4.030,-7.600
63719827189,63719.827189,0.458321,0.730,-0.140,0.780,6.340,1.070,-5.110
63719833185,63719.833185,0.464317,0.720,-0.130,0.780,6.470,-1.970,-2.180
63719839185,63719.839185,0.470317,0.710,-0.120,0.760,5.530,-5.470,1.100
63719845313,63719.845313,0.476445,0.700,-0.120,0.750,4.990,-8.900,3.620
63719851199,63719.851199,0.482331,0.690,-0.140,0.760,5.270,-11.850,5.370
63719858378,63719.858378,0.489510,0.690,-0.150,0.780,6.140,-14.240,6.290
63719865206,63719.865206,0.496338,0.690,-0.160,0.760,7.730,-16.170,5.650
63719871179,63719.871179,0.502311,0.700,-0.160,0.780,9.330,-16.750,4.560
63719877186,63719.877186,0.508318,0.700,-0.150,0.780,10.440,-15.790,3.390
63719883596,63719.883596,0.514728,0.730,-0.160,0.790,10.920,-13.880,3.180
63719890191,63719.890191,0.521323,0.740,-0.160,0.820,11.100,-9.740,3.940
63719896311,63719.896311,0.527443,0.730,-0.180,0.800,11.570,-5.130,5.360
63719903155,63719.903155,0.534287,0.730,-0.170,0.800,12.380,0.210,7.400
63719909200,63719.909200,0.540332,0.720,-0.170,0.800,12.470,4.640,9.050
63719915200,63719.915200,0.546332,0.720,-0.170,0.790,12.950,8.930,9.130
63719922228,63719.922228,0.553360,0.730,-0.180,0.810,13.820,12.920,7.570
63719928180,63719.928180,0.559312,0.730,-0.190,0.820,15.010,15.180,5.420
63719934211,63719.934211,0.565343,0.700,-0.180,0.800,15.690,15.370,2.790
63719940180,63719.940180,0.571312,0.680,-0.160,0.800,14.690,14.050,0.920
63719946194,63719.946194,0.577326,0.670,-0.160,0.810,12.670,11.360,0.340
63719952178,63719.952178,0.583310,0.670,-0.150,0.800,10.870,8.320,0.290
63719958200,63719.958200,0.589332,0.690,-0.150,0.810,9.560,4.640,0.320
63719964308,63719.964308,0.595440,0.700,-0.160,0.820,9.110,1.010,0.260
63719970685,63719.970685,0.601817,0.700,-0.160,0.820,8.780,-2.790,-0.080
63719977185,63719.977185,0.608317,0.700,-0.150,0.830,8.090,-6.760,-0.640
63719983186,63719.983186,0.614318,0.690,-0.160,0.830,7.560,-10.500,-1.360
63719990193,63719.990193,0.621325,0.700,-0.160,0.830,7.690,-14.790,-2.600
63719996175,63719.996175,0.627307,0.680,-0.170,0.820,9.680,-18.750,-4.430
63720002120,63720.002120,0.633252,0.680,-0.190,0.820,11.910,-23.110,-6.340
63720008123,63720.008123,0.639255,0.680,-0.190,0.820,13.650,-27.400,-7.570
63720014153,63720.014153,0.645285,0.700,-0.200,0.840,14.140,-29.850,-7.270
63720023185,63720.023185,0.654317,0.710,-0.190,0.830,14.230,-32.270,-5.800
63720029177,63720.029177,0.660309,0.720,-0.180,0.810,12.900,-33.160,-3.660
63720035170,63720.035170,0.666302,0.730,-0.170,0.810,11.240,-33.730,-1.860
63720042189,63720.042189,0.673321,0.730,-0.160,0.800,9.660,-33.650,0.050
63720048184,63720.048184,0.679316,0.750,-0.170,0.790,9.070,-33.400,1.620
63720054195,63720.054195,0.685327,0.740,-0.190,0.770,9.630,-32.780,3.620
63720060587,63720.060587,0.691719,0.750,-0.180,0.770,10.700,-31.560,5.920
63720067217,63720.067217,0.698349,0.750,-0.170,0.780,11.660,-30.140,7.950
63720074031,63720.074031,0.705163,0.740,-0.140,0.790,12.020,-28.850,8.930
63720080178,63720.080178,0.711310,0.740,-0.150,0.760,12.240,-29.010,10.380
63720087624,63720.087624,0.718756,0.740,-0.150,0.770,14.260,-30.180,12.050
63720094207,63720.094207,0.725339,0.740,-0.150,0.750,17.180,-30.440,13.970
63720100367,63720.100367,0.731499,0.750,-0.150,0.770,21.150,-30.760,14.960
63720107162,63720.107162,0.738294,0.760,-0.160,0.770,28.200,-30.490,14.270
63720113141,63720.113141,0.744273,0.770,-0.160,0.780,36.400,-30.000,12.870
63720120338,63720.120338,0.751470,0.760,-0.180,0.760,45.890,-28.550,13.190
63720126182,63720.126182,0.757314,0.760,-0.130,0.760,53.660,-26.120,11.160
63720132197,63720.132197,0.763329,0.770,-0.180,0.740,59.790,-21.210,10.400
63720138420,63720.138420,0.769552,0.810,-0.170,0.770,60.440,-13.280,11.050
63720145193,63720.145193,0.776325,0.810,-0.070,0.760,57.710,-4.350,8.960
63720151288,63720.151288,0.782420,0.840,-0.140,0.760,52.020,4.520,9.100
63720158182,63720.158182,0.789314,0.840,-0.110,0.760,44.900,12.820,7.860
63720165168,63720.165168,0.796300,0.830,-0.100,0.760,41.070,18.870,3.650
63720173638,63720.173638,0.804770,0.790,-0.130,0.750,43.020,24.080,1.020
63720180283,63720.180283,0.811415,0.760,-0.090,0.770,49.680,25.470,-5.680
63720187209,63720.187209,0.818341,0.740,-0.110,0.780,58.980,25.950,-9.630
63720194180,63720.194180,0.825312,0.730,-0.130,0.800,70.500,23.530,-13.740
63720200144,63720.200144,0.831276,0.700,-0.110,0.750,79.830,18.140,-16.240
63720206120,63720.206120,0.837252,0.710,-0.150,0.770,86.140,11.330,-15.690
63720212132,63720.212132,0.843264,0.670,-0.090,0.670,91.310,1.660,-13.560
63720220012,63720.220012,0.851144,0.720,-0.040,0.670,98.840,-11.400,-18.640
63720226412,63720.226412,0.857544,0.690,-0.060,0.690,105.500,-21.400,-20.850
63720232285,63720.232285,0.863417,0.700,-0.050,0.680,111.690,-31.020,-25.210
63720239578,63720.239578,0.870710,0.720,-0.060,0.730,115.970,-38.430,-27.910
63720248491,63720.248491,0.879623,0.720,-0.100,0.710,119.650,-48.370,-23.890
63720262607,63720.262607,0.893739,0.760,-0.120,0.710,111.340,-55.940,-3.180
63720269201,63720.269201,0.900333,0.770,-0.090,0.750,101.560,-54.550,9.970
63720276197,63720.276197,0.907329,0.780,-0.060,0.800,87.480,-48.260,22.660
63720282175,63720.282175,0.913307,0.800,-0.030,0.820,75.740,-39.630,29.800
63720289199,63720.289199,0.920331,0.830,-0.040,0.860,65.820,-25.540,34.400
63720296405,63720.296405,0.927537,0.840,-0.060,0.860,58.550,-7.680,35.470
63720304331,63720.304331,0.935463,0.840,-0.060,0.850,51.190,12.400,33.510
63720310118,63720.310118,0.941250,0.830,0.000,0.830,45.480,24.610,28.690
63720316330,63720.316330,0.947462,0.820,0.040,0.770,39.850,33.920,21.450
63720322562,63720.322562,0.953694,0.830,0.060,0.700,34.920,40.200,14.340
63720329170,63720.329170,0.960302,0.860,0.060,0.680,31.620,45.070,8.060
63720335189,63720.335189,0.966321,0.880,0.060,0.690,32.440,48.400,2.350
63720343219,63720.343219,0.974351,0.860,0.070,0.710,40.760,50.890,-9.210
63720351176,63720.351176,0.982308,0.830,0.060,0.720,55.020,50.170,-22.980
63720358177,63720.358177,0.989309,0.770,0.060,0.710,68.950,43.940,-34.110
63720364172,63720.364172,0.995304,0.720,0.030,0.700,79.480,35.110,-40.530
63720371288,63720.371288,1.002420,0.660,-0.000,0.710,88.560,22.370,-42.760
63720378986,63720.378986,1.010118,0.630,-0.070,0.730,93.080,8.380,-38.200
63720387339,63720.387339,1.018471,0.660,-0.130,0.750,91.440,-5.790,-23.390
63720393168,63720.393168,1.024300,0.700,-0.110,0.750,85.160,-12.520,-8.980
63720401610,63720.401610,1.032742,0.790,-0.010,0.750,76.980,-15.730,8.840
63720408161,63720.408161,1.039293,0.850,0.030,0.790,69.950,-12.080,21.180
63720414137,63720.414137,1.045269,0.850,0.050,0.760,58.320,-5.760,36.030
63720420123,63720.420123,1.051255,0.860,0.090,0.790,47.280,0.960,45.020
63720427803,63720.427803,1.058935,0.900,0.070,0.820,31.180,14.140,54.060
63720434663,63720.434663,1.065795,0.900,0.130,0.720,26.050,22.720,55.890
63720444306,63720.444306,1.075438,0.880,0.010,0.780,27.080,34.120,53.730
63720451223,63720.451223,1.082355,0.830,-0.050,0.780,12.660,38.530,58.340
63720458176,63720.458176,1.089308,0.750,0.070,0.690,6.870,34.430,50.730
63720464175,63720.464175,1.095307,0.690,0.080,0.660,6.180,27.130,38.780
63720470208,63720.470208,1.101340,0.680,0.210,0.700,3.620,18.870,24.310
63720476651,63720.476651,1.107783,0.660,0.640,0.700,-25.050,12.900,7.600
63720484450,63720.484450,1.115582,0.600,0.560,0.680,-70.520,2.400,-7.250
63720491262,63720.491262,1.122394,0.610,0.470,0.600,-105.830,-12.370,-19.160
63720498175,63720.498175,1.129307,0.630,0.350,0.390,-128.820,-35.970,-37.440
63720504162,63720.504162,1.135294,0.630,0.220,0.370,-138.400,-53.660,-45.790
63720510400,63720.510400,1.141532,0.750,-0.140,0.800,-139.110,-68.050,-48.640
63720517224,63720.517224,1.148356,0.780,-0.500,0.930,-142.900,-64.290,-29.240
63720525156,63720.525156,1.156288,0.780,-0.760,1.090,-104.320,-58.290,-16.690
63720534789,63720.534789,1.165921,0.820,-1.110,1.070,8.780,-33.340,1.470
63720541172,63720.541172,1.172304,0.880,-0.320,0.930,78.400,-18.660,16.180
63720547161,63720.547161,1.178293,0.830,0.040,0.750,71.740,-10.560,30.980
63720553177,63720.553177,1.184309,0.800,0.100,0.690,41.480,-8.460,47.600
63720559821,63720.559821,1.190953,0.860,0.070,0.720,16.630,-4.460,60.240
63720566173,63720.566173,1.197305,0.880,-0.010,0.770,9.820,2.890,63.740
63720577527,63720.577527,1.208659,0.840,0.000,0.820,29.710,22.110,55.040
63720584186,63720.584186,1.215318,0.760,0.010,0.770,34.060,30.610,46.050
63720590175,63720.590175,1.221307,0.690,-0.020,0.690,32.460,32.370,40.290
63720597314,63720.597314,1.228446,0.660,-0.030,0.700,28.430,29.270,31.020
63720604186,63720.604186,1.235318,0.680,-0.110,0.740,23.480,25.400,23.590
63720610142,63720.610142,1.241274,0.670,-0.090,0.710,21.100,21.390,16.240
63720617153,63720.617153,1.248285,0.630,-0.030,0.720,18.090,14.060,4.630
63720623418,63720.623418,1.254550,0.630,-0.040,0.740,14.430,7.710,-6.950
63720629167,63720.629167,1.260299,0.630,-0.070,0.720,14.240,2.630,-14.490
63720637364,63720.637364,1.268496,0.640,-0.140,0.750,12.380,-1.280,-18.150
63720643530,63720.643530,1.274662,0.720,-0.010,0.760,0.460,-4.270,-21.160
63720650165,63720.650165,1.281297,0.750,-0.000,0.740,-0.080,-3.370,-21.910
63720656171,63720.656171,1.287303,0.760,-0.040,0.780,4.370,-1.310,-18.990
63720662171,63720.662171,1.293303,0.750,0.020,0.800,8.850,2.350,-15.950
63720668172,63720.668172,1.299304,0.820,-0.000,0.810,12.700,8.350,-13.020
63720679222,63720.679222,1.310354,0.840,-0.030,0.780,10.240,15.940,-2.290
63720685976,63720.685976,1.317108,0.830,-0.010,0.770,5.510,18.200,0.520
63720692323,63720.692323,1.323455,0.790,-0.020,0.790,6.020,19.040,0.530
63720699343,63720.699343,1.330475,0.770,-0.030,0.780,8.810,17.830,-1.330
63720707182,63720.707182,1.338314,0.760,-0.070,0.770,9.680,12.980,-1.020
63720714947,63720.714947,1.346079,0.740,-0.040,0.730,7.300,5.220,0.270
63720721150,63720.721150,1.352282,0.730,-0.030,0.720,5.510,-2.950,-0.170
63720727876,63720.727876,1.359008,0.720,-0.040,0.730,4.430,-11.150,-1.010
63720734131,63720.734131,1.365263,0.730,-0.060,0.720,3.300,-18.170,-1.080
63720740109,63720.740109,1.371241,0.730,-0.070,0.700,-1.420,-24.350,2.980
63720746349,63720.746349,1.377481,0.780,-0.040,0.750,-3.740,-27.510,4.560
63720752161,63720.752161,1.383293,0.770,-0.070,0.730,-5.470,-28.150,6.960
63720759296,63720.759296,1.390428,0.780,-0.070,0.730,-8.720,-27.220,8.850
63720766167,63720.766167,1.397299,0.820,-0.030,0.750,-10.870,-24.890,10.200
63720772166,63720.772166,1.403298,0.810,-0.060,0.750,-10.500,-21.450,9.730
63720778195,63720.778195,1.409327,0.820,-0.050,0.760,-8.670,-17.500,8.890
63720785297,63720.785297,1.416429,0.820,-0.060,0.760,-4.720,-12.320,8.290
63720791277,63720.791277,1.422409,0.800,-0.080,0.750,-1.540,-8.460,9.180
63720798192,63720.798192,1.429324,0.780,-0.070,0.760,0.920,-4.210,10.580
63720804178,63720.804178,1.435310,0.770,-0.060,0.760,1.330,-1.310,12.060
63720810166,63720.810166,1.441298,0.760,-0.060,0.760,1.220,0.850,12.460
63720816162,63720.816162,1.447294,0.750,-0.080,0.750,2.200,2.980,10.470
63720822159,63720.822159,1.453291,0.760,-0.080,0.760,3.540,4.210,7.130
63720828131,63720.828131,1.459263,0.760,-0.090,0.740,4.400,4.140,4.230
63720837172,63720.837172,1.468304,0.770,-0.070,0.740,7.300,1.910,-1.920
63720843170,63720.843170,1.474302,0.770,-0.070,0.740,10.030,-0.850,-7.110
63720849169,63720.849169,1.480301,0.760,-0.080,0.750,11.340,-4.210,-9.220
63720855173,63720.855173,1.486305,0.770,-0.080,0.720,10.210,-8.560,-7.880
63720861426,63720.861426,1.492558,0.770,-0.080,0.720,7.560,-13.620,-4.670
63720867190,63720.867190,1.498322,0.770,-0.030,0.700,8.140,-19.240,-4.850
63720877787,63720.877787,1.508919,0.840,-0.090,0.770,14.900,-24.560,-4.930
63720885238,63720.885238,1.516370,0.840,-0.080,0.770,18.530,-25.480,-1.920
63720891180,63720.891180,1.522312,0.810,-0.050,0.720,19.800,-28.030,-1.420
63720897543,63720.897543,1.528675,0.790,-0.070,0.710,18.030,-31.790,-0.520
63720905187,63720.905187,1.536319,0.790,-0.070,0.660,14.090,-39.130,0.700
63720911281,63720.911281,1.542413,0.800,-0.080,0.700,11.970,-45.220,2.170
63720918186,63720.918186,1.549318,0.810,-0.080,0.710,10.430,-52.670,3.850
63720924149,63720.924149,1.555281,0.830,-0.050,0.730,9.880,-57.330,4.670
63720930322,63720.930322,1.561454,0.840,-0.060,0.750,11.250,-61.050,4.440
63720938519,63720.938519,1.569651,0.840,-0.080,0.730,12.080,-63.220,6.820
63720945183,63720.945183,1.576315,0.870,-0.080,0.760,14.500,-61.830,7.310
63720951169,63720.951169,1.582301,0.870,-0.080,0.780,18.020,-56.930,7.620
63720957178,63720.957178,1.588310,0.850,-0.080,0.740,20.660,-52.020,7.570
63720963173,63720.963173,1.594305,0.830,-0.090,0.720,20.200,-47.860,9.180
63720969191,63720.969191,1.600323,0.810,-0.080,0.690,18.560,-44.700,10.030
63720979598,63720.979598,1.610730,0.800,-0.080,0.660,17.920,-41.730,7.160
63720986525,63720.986525,1.617657,0.780,-0.070,0.630,19.980,-42.090,2.430
63720992829,63720.992829,1.623961,0.770,-0.060,0.600,23.620,-45.420,-3.980
63720999160,63720.999160,1.630292,0.760,-0.060,0.580,28.020,-50.960,-10.340
63721005176,63721.005176,1.636308,0.780,-0.040,0.610,29.570,-56.140,-14.550
63721011208,63721.011208,1.642340,0.820,-0.020,0.650,26.200,-58.580,-15.160
63721019179,63721.019179,1.650311,0.860,-0.050,0.670,20.900,-58.560,-14.000
63721025132,63721.025132,1.656264,0.870,-0.090,0.670,18.340,-55.860,-11.620
63721031133,63721.031133,1.662265,0.870,-0.090,0.660,14.400,-51.370,-7.280
63721037763,63721.037763,1.668895,0.860,-0.100,0.630,10.430,-46.990,-3.830
63721044165,63721.044165,1.675297,0.880,-0.100,0.650,7.420,-41.800,-1.020
63721050152,63721.050152,1.681284,0.880,-0.090,0.660,4.960,-36.260,1.150
63721056172,63721.056172,1.687304,0.900,-0.080,0.660,4.030,-30.230,1.820
63721062175,63721.062175,1.693307,0.890,-0.060,0.640,5.040,-24.340,0.440
63721068161,63721.068161,1.699293,0.880,-0.070,0.590,6.790,-19.470,-1.710
63721075390,63721.075390,1.706522,0.860,-0.060,0.550,8.730,-15.730,-4.110
63721083845,63721.083845,1.714977,0.840,-0.070,0.520,10.320,-13.920,-4.610
63721090207,63721.090207,1.721339,0.830,-0.070,0.540,11.620,-13.190,-3.850
63721096175,63721.096175,1.727307,0.810,-0.060,0.530,13.100,-13.270,-2.810
63721102156,63721.102156,1.733288,0.800,-0.050,0.520,14.630,-13.880,-2.720
63721108183,63721.108183,1.739315,0.820,-0.030,0.540,15.680,-14.500,-2.750
63721115793,63721.115793,1.746925,0.860,-0.020,0.550,14.460,-15.010,-1.660
63721122197,63721.122197,1.753329,0.880,-0.020,0.560,14.020,-15.300,-1.160
63721128134,63721.128134,1.759266,0.890,-0.010,0.570,14.020,-14.930,-1.660
63721134148,63721.134148,1.765280,0.900,-0.040,0.560,14.760,-13.890,-1.820
63721142299,63721.142299,1.773431,0.930,-0.030,0.560,15.020,-12.990,-1.390
63721150169,63721.150169,1.781301,0.960,-0.080,0.570,15.910,-10.810,2.030
63721156170,63721.156170,1.787302,0.970,-0.070,0.620,18.720,-8.500,3.740
63721162347,63721.162347,1.793479,0.940,-0.090,0.640,21.760,-5.880,6.060
63721168184,63721.168184,1.799316,0.920,-0.050,0.610,23.370,-4.690,7.330
63721174192,63721.174192,1.805324,0.910,-0.060,0.600,22.990,-5.300,7.940
63721182349,63721.182349,1.813481,0.900,-0.060,0.580,22.440,-7.510,7.390
63721191143,63721.191143,1.822275,0.900,-0.050,0.590,23.620,-12.290,1.190
63721198406,63721.198406,1.829538,0.890,-0.040,0.600,24.460,-16.320,-5.010
63721205278,63721.205278,1.836410,0.880,-0.040,0.610,24.050,-19.630,-7.420
63721212202,63721.212202,1.843334,0.870,-0.050,0.590,24.550,-23.790,-9.080
63721218488,63721.218488,1.849620,0.850,-0.060,0.560,24.990,-28.140,-9.070
63721226216,63721.226216,1.857348,0.870,-0.030,0.550,28.310,-35.100,-12.380
63721232155,63721.232155,1.863287,0.900,-0.000,0.570,29.480,-39.600,-14.020
63721238143,63721.238143,1.869275,0.910,-0.010,0.570,30.310,-42.200,-15.300
63721244103,63721.244103,1.875235,0.920,-0.050,0.570,30.120,-43.390,-15.110
63721250105,63721.250105,1.881237,0.920,-0.040,0.570,28.560,-42.200,-12.990
63721256732,63721.256732,1.887864,0.920,-0.050,0.550,26.120,-40.110,-10.050
63721265175,63721.265175,1.896307,0.930,-0.030,0.560,25.850,-34.020,-9.100
63721271153,63721.271153,1.902285,0.930,-0.040,0.600,26.980,-29.360,-11.210
63721278172,63721.278172,1.909304,0.920,-0.020,0.550,25.630,-25.600,-13.010
63721284602,63721.284602,1.915734,0.880,-0.020,0.520,24.640,-25.730,-15.500
63721291854,63721.291854,1.922986,0.880,-0.050,0.510,24.690,-28.410,-17.310
63721299212,63721.299212,1.930344,0.880,-0.040,0.510,27.040,-32.530,-18.730
63721306257,63721.306257,1.937389,0.870,-0.030,0.490,30.890,-36.850,-21.860
63721312120,63721.312120,1.943252,0.860,-0.020,0.490,33.010,-40.230,-23.790
63721318121,63721.318121,1.949253,0.880,-0.000,0.530,31.620,-41.080,-23.590
63721327177,63721.327177,1.958309,0.920,-0.000,0.540,28.200,-37.830,-21.910
63721333135,63721.333135,1.964267,0.940,-0.020,0.540,26.950,-33.590,-19.950
63721339147,63721.339147,1.970279,0.940,-0.020,0.540,25.680,-29.300,-17.220
63721345172,63721.345172,1.976304,0.930,-0.020,0.540,24.560,-24.920,-15.210
63721352185,63721.352185,1.983317,0.930,-0.010,0.530,22.920,-20.870,-13.910
63721360062,63721.360062,1.991194,0.940,0.020,0.500,21.980,-19.210,-13.980
63721369189,63721.369189,2.000321,0.950,0.010,0.460,20.960,-20.430,-13.600
63721376168,63721.376168,2.007300,0.970,0.020,0.480,20.060,-21.500,-11.860
63721382182,63721.382182,2.013314,0.960,0.020,0.470,20.990,-22.340,-11.330
63721388169,63721.388169,2.019301,0.950,0.010,0.460,21.790,-23.600,-10.030
63721395771,63721.395771,2.026903,0.930,-0.000,0.470,22.500,-25.940,-7.180
63721403267,63721.403267,2.034399,0.910,0.000,0.450,23.850,-29.190,-3.770
63721412492,63721.412492,2.043624,0.910,0.010,0.440,24.080,-35.130,-1.220
63721419184,63721.419184,2.050316,0.920,0.000,0.420,24.960,-43.560,-0.020
63721425137,63721.425137,2.056269,0.920,0.010,0.420,27.150,-50.430,-0.950
63721432199,63721.432199,2.063331,0.930,0.020,0.420,29.910,-56.660,-2.700
63721438183,63721.438183,2.069315,0.930,0.030,0.410,31.850,-60.720,-4.600
63721446328,63721.446328,2.077460,0.950,0.030,0.420,33.100,-63.690,-5.310
63721455547,63721.455547,2.086679,0.970,0.030,0.410,33.280,-65.050,-4.560
63721462171,63721.462171,2.093303,0.980,0.040,0.410,33.300,-63.890,-3.910
63721468161,63721.468161,2.099293,0.990,0.050,0.430,33.160,-61.300,-2.990
63721474168,63721.474168,2.105300,0.990,0.050,0.440,32.780,-56.670,-1.880
63721480170,63721.480170,2.111302,1.000,0.040,0.440,31.590,-51.250,0.240
63721486511,63721.486511,2.117643,1.010,0.020,0.450,28.900,-45.590,2.950
63721494215,63721.494215,2.125347,1.010,0.010,0.440,25.630,-39.400,6.600
63721500183,63721.500183,2.131315,1.010,0.020,0.440,23.300,-36.670,7.590
63721508176,63721.508176,2.139308,1.010,0.040,0.430,21.540,-35.010,6.690
63721515180,63721.515180,2.146312,1.000,0.050,0.400,19.190,-34.870,3.950
63721522180,63721.522180,2.153312,0.980,0.020,0.390,17.790,-36.520,2.780
63721528250,63721.528250,2.159382,0.970,0.010,0.370,17.420,-38.850,2.950
63721534155,63721.534155,2.165287,0.960,0.030,0.360,17.790,-42.720,3.080
63721540140,63721.540140,2.171272,0.940,0.040,0.350,19.070,-48.050,3.340
63721546852,63721.546852,2.177984,0.950,0.030,0.340,21.650,-54.670,3.510
63721553173,63721.553173,2.184305,0.950,0.020,0.330,23.570,-59.970,4.310
63721561968,63721.561968,2.193100,0.960,0.020,0.340,24.470,-64.080,5.830
63721570176,63721.570176,2.201308,0.990,0.040,0.330,25.800,-67.220,7.310
63721576308,63721.576308,2.207440,0.990,0.040,0.340,25.400,-66.270,7.710
63721582175,63721.582175,2.213307,1.000,0.040,0.320,24.240,-64.430,8.400
63721588386,63721.588386,2.219518,1.010,0.040,0.290,23.040,-63.620,8.810
63721595512,63721.595512,2.226644,1.010,0.040,0.300,23.070,-67.470,8.690
63721602495,63721.602495,2.233627,0.990,0.030,0.300,23.650,-74.670,8.210
63721609706,63721.609706,2.240838,0.980,0.030,0.280,24.110,-83.330,8.610
63721617221,63721.617221,2.248353,0.970,-0.000,0.290,23.680,-94.120,10.720
63721625154,63721.625154,2.256286,1.010,0.020,0.290,23.600,-99.210,12.630
63721631456,63721.631456,2.262588,1.040,0.020,0.290,23.760,-101.110,12.980
63721638161,63721.638161,2.269293,1.080,0.020,0.300,24.320,-95.760,12.210
63721644154,63721.644154,2.275286,1.080,0.030,0.300,23.950,-87.890,12.060
63721651293,63721.651293,2.282425,1.070,0.030,0.270,21.100,-75.880,13.760
63721657134,63721.657134,2.288266,1.060,0.020,0.230,18.320,-65.980,16.080
63721663149,63721.663149,2.294281,1.030,0.020,0.210,16.560,-56.780,17.660
63721669119,63721.669119,2.300251,1.010,0.020,0.200,16.370,-48.750,18.340
63721675113,63721.675113,2.306245,0.980,0.010,0.210,16.840,-41.530,18.460
63721681112,63721.681112,2.312244,0.970,0.000,0.180,17.400,-36.030,18.210
63721717415,63721.717415,2.348547,0.940,0.000,0.140,16.050,-35.080,4.900
63721724191,63721.724191,2.355323,0.960,-0.000,0.140,15.920,-37.150,3.130
63721730161,63721.730161,2.361293,0.980,-0.010,0.150,15.570,-37.420,2.630
63721737163,63721.737163,2.368295,0.990,-0.020,0.140,15.050,-35.860,3.650
63721743346,63721.743346,2.374478,1.000,-0.010,0.140,14.840,-34.000,5.080
63721750345,63721.750345,2.381477,0.990,-0.020,0.140,14.920,-32.050,6.180
63721756137,63721.756137,2.387269,0.980,-0.010,0.140,14.610,-31.010,6.600
63721762105,63721.762105,2.393237,0.980,-0.010,0.130,13.820,-29.250,6.560
63721768107,63721.768107,2.399239,0.980,-0.010,0.130,12.870,-27.220,6.470
63721774128,63721.774128,2.405260,0.990,-0.010,0.130,12.440,-24.950,5.660
63721793140,63721.793140,2.424272,0.990,0.000,0.100,12.060,-15.600,2.090
63721800967,63721.800967,2.432099,0.990,-0.000,0.100,11.390,-11.040,1.880
63721810491,63721.810491,2.441623,0.980,0.010,0.100,10.840,-4.840,2.430
63721817164,63721.817164,2.448296,1.000,-0.000,0.100,11.850,-2.900,2.370
63721823169,63721.823169,2.454301,1.010,0.000,0.100,13.390,-3.690,2.560
63721829166,63721.829166,2.460298,1.010,0.010,0.110,14.260,-6.700,2.430
63721835179,63721.835179,2.466311,1.020,0.010,0.100,14.230,-11.390,2.660
63721842160,63721.842160,2.473292,1.020,-0.000,0.100,13.740,-17.850,2.870
63721848290,63721.848290,2.479422,1.020,0.000,0.120,12.950,-23.160,2.890
63721854153,63721.854153,2.485285,1.030,-0.010,0.130,12.290,-26.000,2.920
63721860145,63721.860145,2.491277,1.020,-0.010,0.120,12.240,-27.440,2.810
63721922206,63721.922206,2.553338,0.960,-0.000,0.100,11.820,-6.690,2.990
63721929174,63721.929174,2.560306,0.970,-0.000,0.090,10.110,-4.840,0.950
63721935148,63721.935148,2.566280,0.970,-0.010,0.070,8.700,-2.840,-0.270
63721942272,63721.942272,2.573404,0.970,-0.010,0.070,8.440,0.170,-1.970
63721948119,63721.948119,2.579251,0.970,-0.000,0.060,7.980,2.980,-3.630
63721954116,63721.954116,2.585248,0.980,-0.010,0.060,7.420,5.800,-4.260
63721960124,63721.960124,2.591256,0.980,0.000,0.070,7.440,8.260,-5.280
63721966127,63721.966127,2.597259,0.990,-0.010,0.070,7.770,10.520,-5.880
63721985228,63721.985228,2.616360,1.010,0.010,0.100,6.210,18.850,-6.210
63722014311,63722.014311,2.645443,0.970,-0.010,0.070,2.400,10.240,1.160
63722021185,63722.021185,2.652317,1.000,0.010,0.100,1.850,8.170,0.290
63722029174,63722.029174,2.660306,1.020,0.020,0.100,2.720,7.220,-1.540
63722035963,63722.035963,2.667095,1.030,0.010,0.090,3.910,6.560,-1.860
63722042307,63722.042307,2.673439,1.040,0.020,0.090,5.440,5.950,-1.890
63722049475,63722.049475,2.680607,1.010,0.030,0.090,7.570,4.530,-2.240
63722056193,63722.056193,2.687325,1.010,0.020,0.090,9.530,2.640,-1.880
63722062145,63722.062145,2.693277,1.020,-0.000,0.090,10.980,1.400,-0.020
63722070271,63722.070271,2.701403,1.020,0.010,0.100,13.080,-0.490,1.510
63722077158,63722.077158,2.708290,1.000,0.000,0.090,14.840,-2.410,1.730
63722083245,63722.083245,2.714377,1.000,-0.000,0.090,15.730,-4.230,2.260
63722090389,63722.090389,2.721521,1.010,0.010,0.110,15.620,-4.580,2.760
63722097180,63722.097180,2.728312,1.020,-0.010,0.120,14.660,-3.650,3.070
63722103356,63722.103356,2.734488,1.030,-0.010,0.140,13.220,-0.690,3.450
63722112002,63722.112002,2.743134,1.030,0.000,0.120,10.990,3.390,3.660
63722118345,63722.118345,2.749477,1.020,-0.000,0.110,9.340,6.920,4.320
63722127230,63722.127230,2.758362,1.010,0.010,0.090,10.060,10.670,4.150
63722134191,63722.134191,2.765323,1.010,0.000,0.090,11.160,12.720,3.920
63722142182,63722.142182,2.773314,0.990,0.010,0.090,11.280,13.160,4.120
63722148161,63722.148161,2.779293,0.990,0.010,0.100,11.420,13.040,4.050
63722154290,63722.154290,2.785422,0.990,-0.000,0.100,11.570,12.210,3.630
63722161236,63722.161236,2.792368,0.980,0.000,0.110,11.470,10.790,3.270
63722167153,63722.167153,2.798285,0.980,0.000,0.090,11.040,9.920,2.470
63722175432,63722.175432,2.806564,0.990,-0.000,0.100,10.600,9.220,1.390
63722184187,63722.184187,2.815319,0.980,-0.010,0.090,12.090,7.880,0.320
63722190155,63722.190155,2.821287,0.990,-0.010,0.090,13.920,5.270,0.030
63722196172,63722.196172,2.827304,0.980,-0.010,0.080,14.350,1.660,0.750
63722202414,63722.202414,2.833546,1.000,-0.000,0.090,14.150,-1.620,1.590
63722209243,63722.209243,2.840375,1.010,-0.010,0.110,13.920,-3.620,2.090
63722218498,63722.218498,2.849630,1.010,-0.000,0.130,13.770,-4.440,1.190
63722227197,63722.227197,2.858329,1.000,-0.000,0.140,12.270,-3.920,-0.310
63722234209,63722.234209,2.865341,1.000,-0.000,0.120,10.460,-3.040,-1.070
63722241168,63722.241168,2.872300,1.000,0.000,0.120,9.940,-2.080,-1.340
63722247263,63722.247263,2.878395,1.010,0.010,0.110,10.470,-0.600,-1.340
63722253137,63722.253137,2.884269,1.020,0.000,0.090,12.000,0.500,-0.500
63722260147,63722.260147,2.891279,1.010,0.010,0.080,14.060,1.570,1.280
63722267500,63722.267500,2.898632,1.020,0.020,0.100,14.980,3.150,2.990
63722274462,63722.274462,2.905594,1.020,0.010,0.100,15.420,4.560,3.300
63722281331,63722.281331,2.912463,1.010,-0.010,0.100,15.820,5.270,2.260
63722287281,63722.287281,2.918413,1.000,-0.010,0.100,15.160,5.570,1.510
63722294786,63722.294786,2.925918,1.010,-0.000,0.100,14.140,5.910,1.040
63722304191,63722.304191,2.935323,0.990,-0.000,0.110,12.660,7.420,-0.310
63722310163,63722.310163,2.941295,0.980,-0.000,0.100,12.400,8.180,-0.690
63722317218,63722.317218,2.948350,0.960,-0.020,0.070,12.670,7.690,-2.230
63722325131,63722.325131,2.956263,0.980,-0.020,0.070,12.990,4.370,-2.180
63722331182,63722.331182,2.962314,0.980,-0.020,0.090,13.790,0.610,-1.510
63722338807,63722.338807,2.969939,0.990,-0.010,0.100,14.700,-3.690,-0.520
63722345918,63722.345918,2.977050,1.000,-0.020,0.110,15.050,-6.290,0.850
63722352152,63722.352152,2.983284,1.010,0.000,0.130,14.580,-7.240,1.890
63722358139,63722.358139,2.989271,1.030,0.010,0.120,13.470,-7.280,1.360
63722364134,63722.364134,2.995266,1.030,0.010,0.130,12.000,-6.700,0.920
63722370106,63722.370106,3.001238,1.030,0.020,0.120,11.150,-5.980,-0.290
63722376125,63722.376125,3.007257,1.040,0.020,0.120,11.020,-4.890,-1.020
63722382441,63722.382441,3.013573,1.030,0.020,0.110,11.650,-3.800,-0.900
63722388566,63722.388566,3.019698,1.020,0.010,0.100,11.950,-2.760,-0.080
63722395140,63722.395140,3.026272,1.020,0.010,0.120,12.400,-1.600,1.740
63722401182,63722.401182,3.032314,1.030,0.000,0.110,12.760,-0.440,3.630
63722407285,63722.407285,3.038417,1.020,0.010,0.110,12.930,0.960,4.560
63722414204,63722.414204,3.045336,1.030,0.010,0.110,12.720,2.290,4.640
63722421161,63722.421161,3.052293,1.030,0.010,0.120,12.170,3.660,4.030
63722432270,63722.432270,3.063402,1.010,-0.000,0.110,10.730,5.540,3.690
63722439158,63722.439158,3.070290,1.000,-0.010,0.100,9.850,6.320,4.170
63722445160,63722.445160,3.076292,0.990,-0.020,0.100,8.960,6.670,5.220
63722452600,63722.452600,3.083732,0.990,-0.000,0.100,8.380,6.120,6.170
63722459128,63722.459128,3.090260,0.970,-0.000,0.090,8.600,5.280,5.980
63722465137,63722.465137,3.096269,0.970,-0.010,0.100,8.810,4.260,5.680
63722471109,63722.471109,3.102241,0.960,-0.010,0.090,9.080,2.900,5.330
63722477343,63722.477343,3.108475,0.960,-0.010,0.080,9.890,0.960,4.560
63722483206,63722.483206,3.114338,0.960,-0.010,0.080,9.820,-0.730,4.120
63722489159,63722.489159,3.120291,0.980,-0.010,0.090,9.680,-1.630,3.330
63722496571,63722.496571,3.127703,0.990,-0.010,0.100,9.540,-1.110,2.060
63722503157,63722.503157,3.134289,0.990,-0.010,0.110,9.830,0.750,0.790
63722509150,63722.509150,3.140282,1.000,-0.010,0.100,9.660,2.580,-0.240
63722515783,63722.515783,3.146915,1.000,-0.010,0.120,9.070,4.660,-0.950
63722522590,63722.522590,3.153722,1.010,-0.010,0.120,7.360,7.450,-1.040
63722529433,63722.529433,3.160565,1.000,-0.020,0.110,6.050,9.920,-0.320
63722539190,63722.539190,3.170322,0.990,-0.010,0.120,2.930,12.870,0.870
63722545288,63722.545288,3.176420,0.990,-0.010,0.130,1.330,14.660,0.960
63722551145,63722.551145,3.182277,0.990,-0.010,0.120,0.780,15.850,0.850
63722557146,63722.557146,3.188278,1.000,0.000,0.120,1.180,16.470,0.320
63722563167,63722.563167,3.194299,0.990,-0.000,0.130,0.400,17.010,1.010
63722570940,63722.570940,3.202072,0.980,-0.010,0.120,0.320,17.210,2.030
63722580941,63722.580941,3.212073,0.990,0.000,0.130,1.160,17.470,2.460
63722587172,63722.587172,3.218304,1.000,-0.010,0.110,1.470,17.020,2.490
63722593169,63722.593169,3.224301,1.010,-0.000,0.110,2.290,15.820,2.110
63722599267,63722.599267,3.230399,1.030,0.010,0.100,2.820,14.720,1.340
63722605162,63722.605162,3.236294,1.030,-0.000,0.110,3.630,13.680,0.810
63722612753,63722.612753,3.243885,1.030,-0.020,0.110,2.900,12.170,1.600
63722621292,63722.621292,3.252424,1.020,-0.040,0.130,-1.620,10.810,4.020
63722627193,63722.627193,3.258325,1.020,-0.040,0.140,-6.400,11.360,6.660
63722633394,63722.633394,3.264526,1.010,-0.020,0.140,-11.480,12.120,9.050
63722640818,63722.640818,3.271950,1.010,-0.010,0.140,-13.920,12.990,9.210
63722647307,63722.647307,3.278439,1.010,0.010,0.140,-13.210,13.820,8.270
63722653233,63722.653233,3.284365,1.000,0.030,0.120,-9.560,14.150,4.900
63722663296,63722.663296,3.294428,0.980,0.000,0.090,-4.380,12.750,1.860
63722670159,63722.670159,3.301291,0.960,-0.000,0.100,-2.610,10.410,1.890
63722676137,63722.676137,3.307269,0.970,-0.000,0.110,-2.090,8.270,3.110
63722682130,63722.682130,3.313262,0.970,0.000,0.120,-2.110,6.340,3.850
63722688128,63722.688128,3.319260,0.980,-0.010,0.130,-2.600,5.180,4.930
63722694353,63722.694353,3.325485,0.980,0.000,0.120,-3.560,4.520,4.890
63722700166,63722.700166,3.331298,0.990,0.000,0.130,-3.560,5.100,3.800
63722706118,63722.706118,3.337250,0.990,-0.010,0.150,-1.980,7.040,1.590
63722729466,63722.729466,3.360598,1.010,-0.030,0.130,-8.110,20.410,-0.400
63722736500,63722.736500,3.367632,1.020,-0.030,0.140,-10.920,22.930,-2.810
63722743402,63722.743402,3.374534,1.020,-0.020,0.130,-11.250,23.440,-6.440
63722749173,63722.749173,3.380305,1.000,-0.010,0.130,-10.890,22.930,-8.840
63722756324,63722.756324,3.387456,0.980,-0.000,0.160,-9.890,21.560,-10.990
63722763141,63722.763141,3.394273,0.970,-0.040,0.160,-9.470,20.520,-10.310
63722769155,63722.769155,3.400287,0.980,-0.040,0.180,-10.270,20.270,-6.840
63722775173,63722.775173,3.406305,0.970,-0.030,0.160,-12.790,19.730,-2.260
63722783778,63722.783778,3.414910,0.980,-0.010,0.160,-15.390,19.150,0.930
63722790138,63722.790138,3.421270,0.980,-0.010,0.170,-14.630,19.160,0.810
63722797165,63722.797165,3.428297,0.980,0.010,0.150,-13.880,19.100,0.730
63722805166,63722.805166,3.436298,0.990,0.030,0.150,-12.820,17.730,-1.110
63722811161,63722.811161,3.442293,0.990,0.010,0.150,-11.880,17.370,-1.500
63722817766,63722.817766,3.448898,1.000,-0.010,0.140,-10.960,17.040,-0.580
63722824740,63722.824740,3.455872,0.980,0.000,0.120,-11.500,17.180,0.690
63722831557,63722.831557,3.462689,1.000,0.010,0.150,-13.600,18.430,2.500
63722840124,63722.840124,3.471256,1.040,0.010,0.180,-10.900,23.540,-0.110
63722847196,63722.847196,3.478328,1.030,-0.040,0.170,-9.650,30.520,-3.010
63722857181,63722.857181,3.488313,1.010,-0.020,0.160,-17.420,36.520,-4.660
63722863136,63722.863136,3.494268,1.000,-0.000,0.180,-22.530,37.590,-5.740
63722869149,63722.869149,3.500281,1.010,0.000,0.200,-23.890,37.940,-9.210
63722876591,63722.876591,3.507723,0.990,-0.040,0.210,-22.440,37.220,-11.510
63722885550,63722.885550,3.516682,0.980,-0.030,0.220,-20.290,35.570,-11.530
63722892892,63722.892892,3.524024,0.980,-0.010,0.200,-21.370,33.500,-8.810
63722900173,63722.900173,3.531305,0.990,0.010,0.210,-22.520,32.580,-6.210
63722906164,63722.906164,3.537296,1.020,0.020,0.220,-20.820,33.040,-4.950
63722912173,63722.912173,3.543305,1.020,0.030,0.210,-17.820,34.080,-4.660
63722918450,63722.918450,3.549582,1.010,0.030,0.200,-14.850,35.070,-4.990
63722925231,63722.925231,3.556363,0.980,0.050,0.160,-12.670,35.310,-5.450
63722934220,63722.934220,3.565352,1.000,0.050,0.160,-9.940,35.820,-7.280
63722943183,63722.943183,3.574315,0.980,-0.000,0.220,-11.110,38.820,-5.240
63722950269,63722.950269,3.581401,1.000,0.030,0.290,-13.590,44.430,-5.250
63722957169,63722.957169,3.588301,1.020,-0.000,0.270,-15.450,51.300,-3.370
63722963143,63722.963143,3.594275,1.020,-0.060,0.340,-19.470,58.350,1.010
63722969196,63722.969196,3.600328,1.010,-0.040,0.330,-23.530,64.960,1.400
63722975188,63722.975188,3.606320,1.010,-0.050,0.330,-28.660,69.850,1.240
63722982994,63722.982994,3.614126,1.000,-0.020,0.310,-34.210,74.470,-0.320
63722991170,63722.991170,3.622302,0.970,-0.060,0.310,-38.030,78.750,-6.550
63722997165,63722.997165,3.628297,0.920,-0.110,0.310,-45.880,80.140,-3.250
63723003178,63723.003178,3.634310,0.860,-0.080,0.270,-58.200,79.510,5.540
63723010182,63723.010182,3.641314,0.830,-0.020,0.190,-71.330,74.020,17.690
63723017201,63723.017201,3.648333,0.890,0.070,0.230,-78.140,67.280,26.370
63723025192,63723.025192,3.656324,0.930,0.020,0.240,-71.270,59.330,30.920
63723032699,63723.032699,3.663831,0.940,0.030,0.270,-59.560,52.660,31.570
63723040288,63723.040288,3.671420,0.960,0.020,0.300,-45.560,46.340,29.970
63723047689,63723.047689,3.678821,0.940,-0.010,0.340,-42.840,42.890,32.380
63723054167,63723.054167,3.685299,0.940,-0.050,0.340,-47.620,42.150,37.180
63723060163,63723.060163,3.691295,0.920,-0.050,0.330,-56.820,45.300,41.450
63723067284,63723.067284,3.698416,0.960,-0.090,0.340,-75.310,51.480,50.050
63723074168,63723.074168,3.705300,0.990,-0.120,0.370,-94.960,59.920,59.890
63723080134,63723.080134,3.711266,1.010,-0.120,0.410,-104.370,68.840,62.340
63723086105,63723.086105,3.717237,1.020,-0.130,0.450,-107.630,80.180,61.920
63723092478,63723.092478,3.723610,1.020,-0.160,0.510,-106.920,93.330,60.410
63723098686,63723.098686,3.729818,1.010,-0.140,0.530,-101.730,107.400,58.630
63723105174,63723.105174,3.736306,1.010,-0.100,0.500,-92.210,119.530,55.360
63723113292,63723.113292,3.744424,1.010,-0.040,0.460,-73.730,126.930,47.180
63723120158,63723.120158,3.751290,0.990,-0.020,0.400,-61.820,127.110,41.070
63723126176,63723.126176,3.757308,0.980,-0.010,0.400,-49.760,124.210,34.320
63723133213,63723.133213,3.764345,0.960,-0.030,0.450,-34.260,118.490,26.410
63723140193,63723.140193,3.771325,0.930,-0.080,0.450,-18.260,111.420,19.860
63723146682,63723.146682,3.777814,0.880,-0.080,0.420,-6.790,103.470,15.180
63723153179,63723.153179,3.784311,0.860,-0.060,0.410,2.320,95.070,10.170
63723159152,63723.159152,3.790284,0.840,-0.050,0.410,11.800,86.640,2.840
63723165459,63723.165459,3.796591,0.840,-0.090,0.410,21.190,78.240,-4.150
63723172160,63723.172160,3.803292,0.850,-0.070,0.420,26.460,70.430,-7.830
63723178136,63723.178136,3.809268,0.880,-0.070,0.430,27.010,65.180,-8.810
63723184246,63723.184246,3.815378,0.890,-0.090,0.480,23.340,63.330,-7.950
63723192355,63723.192355,3.823487,0.940,-0.130,0.560,14.110,69.470,-3.510
63723200720,63723.200720,3.831852,1.010,-0.170,0.630,8.120,82.950,-2.410
63723207592,63723.207592,3.838724,1.120,-0.160,0.680,6.530,101.370,-4.630
63723214174,63723.214174,3.845306,1.120,-0.160,0.700,6.960,117.500,-7.040
63723220138,63723.220138,3.851270,1.090,-0.140,0.670,8.630,129.540,-9.630
63723226173,63723.226173,3.857305,1.030,-0.140,0.630,11.300,137.270,-10.750
63723232362,63723.232362,3.863494,0.960,-0.160,0.600,11.500,140.980,-8.640
63723239224,63723.239224,3.870356,0.880,-0.140,0.580,9.190,140.180,-4.140
63723249295,63723.249295,3.880427,0.830,-0.100,0.570,3.070,131.390,-1.500
63723256530,63723.256530,3.887662,0.800,-0.130,0.590,6.230,120.230,-3.500
63723263608,63723.263608,3.894740,0.750,-0.110,0.590,12.700,106.200,-6.840
63723270161,63723.270161,3.901293,0.720,-0.100,0.620,18.030,90.920,-9.650
63723276169,63723.276169,3.907301,0.700,-0.100,0.610,19.660,77.040,-10.780
63723282158,63723.282158,3.913290,0.710,-0.110,0.590,18.670,63.280,-11.010
63723288111,63723.288111,3.919243,0.730,-0.090,0.610,16.580,51.130,-10.890
63723294111,63723.294111,3.925243,0.770,-0.090,0.630,13.600,42.370,-11.330
63723300167,63723.300167,3.931299,0.810,-0.070,0.670,12.580,37.540,-13.830
63723306168,63723.306168,3.937300,0.830,-0.120,0.700,15.510,36.240,-16.870
63723312201,63723.312201,3.943333,0.860,-0.130,0.750,18.820,38.890,-18.320
63723318171,63723.318171,3.949303,0.900,-0.150,0.780,18.670,45.340,-18.120
63723324163,63723.324163,3.955295,0.950,-0.110,0.760,13.590,55.150,-16.530
63723330170,63723.330170,3.961302,0.970,-0.110,0.760,10.030,65.560,-16.670
63723336433,63723.336433,3.967565,0.960,-0.110,0.790,8.840,75.180,-17.500
63723343208,63723.343208,3.974340,0.910,-0.110,0.800,7.450,84.380,-16.310
63723350176,63723.350176,3.981308,0.860,-0.130,0.790,8.960,90.240,-15.370
63723356168,63723.356168,3.987300,0.790,-0.150,0.800,13.370,91.450,-13.300
63723363164,63723.363164,3.994296,0.720,-0.170,0.750,20.380,87.890,-10.520
63723369167,63723.369167,4.000299,0.680,-0.120,0.730,23.470,81.660,-8.340
63723375170,63723.375170,4.006302,0.650,-0.100,0.680,22.980,72.550,-6.370
63723381140,63723.381140,4.012272,0.630,-0.070,0.670,19.980,61.800,-6.000
63723387112,63723.387112,4.018244,0.630,-0.060,0.670,16.780,49.190,-6.310
63723393115,63723.393115,4.024247,0.620,-0.070,0.680,14.200,35.480,-6.600
63723399374,63723.399374,4.030506,0.630,-0.070,0.690,11.220,22.020,-6.760
63723407182,63723.407182,4.038314,0.680,-0.050,0.700,4.090,8.030,-7.360
63723413159,63723.413159,4.044291,0.680,-0.060,0.730,-1.690,1.970,-6.370
63723419173,63723.419173,4.050305,0.740,-0.100,0.770,-5.450,2.050,-2.120
63723425161,63723.425161,4.056293,0.820,-0.110,0.830,-3.540,8.270,-1.510
63723432214,63723.432214,4.063346,0.890,-0.110,0.880,0.290,21.710,-2.000
63723439006,63723.439006,4.070138,0.910,-0.110,0.860,2.210,35.710,-1.760
63723445215,63723.445215,4.076347,0.900,-0.120,0.860,3.240,51.920,-0.790
63723451174,63723.451174,4.082306,0.870,-0.120,0.850,4.120,61.970,-0.670
63723457174,63723.457174,4.088306,0.830,-0.110,0.850,6.730,68.560,-1.790
63723463174,63723.463174,4.094306,0.770,-0.130,0.830,8.120,71.390,-1.250
63723469455,63723.469455,4.100587,0.710,-0.110,0.800,8.720,71.860,0.030
63723476139,63723.476139,4.107271,0.690,-0.100,0.800,9.420,70.670,0.920
63723482167,63723.482167,4.113299,0.670,-0.110,0.780,10.290,68.820,2.410
63723488110,63723.488110,4.119242,0.660,-0.090,0.780,11.110,66.930,3.010
63723494117,63723.494117,4.125249,0.650,-0.080,0.780,11.920,64.600,3.280
63723500253,63723.500253,4.131385,0.650,-0.080,0.780,11.110,62.560,4.000
63723506150,63723.506150,4.137282,0.650,-0.070,0.780,8.660,61.370,4.990
63723512388,63723.512388,4.143520,0.650,-0.080,0.780,6.290,60.550,6.080
63723518338,63723.518338,4.149470,0.660,-0.080,0.800,4.560,59.850,7.130
63723524873,63723.524873,4.156005,0.660,-0.080,0.810,2.930,58.960,7.660
63723531170,63723.531170,4.162302,0.670,-0.100,0.820,1.480,58.290,8.750
63723537176,63723.537176,4.168308,0.700,-0.090,0.840,-0.690,58.560,9.860
63723544193,63723.544193,4.175325,0.710,-0.100,0.870,-2.030,59.680,10.440
63723551189,63723.551189,4.182321,0.720,-0.130,0.870,-1.800,61.980,11.510
63723559174,63723.559174,4.190306,0.730,-0.130,0.900,-0.580,66.660,11.570
63723565164,63723.565164,4.196296,0.740,-0.130,0.930,1.850,71.370,10.520
63723571282,63723.571282,4.202414,0.740,-0.130,0.940,6.260,77.390,9.010
63723577253,63723.577253,4.208385,0.720,-0.130,0.960,11.950,84.520,6.690
63723583131,63723.583131,4.214263,0.700,-0.130,0.960,18.530,90.840,3.400
63723589155,63723.589155,4.220287,0.670,-0.150,0.920,24.340,93.910,1.500
63723595115,63723.595115,4.226247,0.620,-0.130,0.910,27.310,92.630,0.700
63723601121,63723.601121,4.232253,0.580,-0.120,0.880,27.080,86.870,1.280
63723608161,63723.608161,4.239293,0.530,-0.130,0.850,24.580,73.860,1.470
63723614157,63723.614157,4.245289,0.500,-0.110,0.870,22.760,59.020,0.630
63723625182,63723.625182,4.256314,0.480,-0.090,0.850,18.990,27.620,-3.620
63723631194,63723.631194,4.262326,0.490,-0.070,0.840,14.670,11.880,-5.920
63723637174,63723.637174,4.268306,0.510,-0.070,0.860,7.530,-1.150,-7.690
63723643466,63723.643466,4.274598,0.530,-0.070,0.880,0.000,-10.610,-8.470
63723650210,63723.650210,4.281342,0.560,-0.110,0.950,-5.110,-15.600,-7.390
63723656181,63723.656181,4.287313,0.600,-0.140,0.980,-5.400,-13.590,-5.760
63723662236,63723.662236,4.293368,0.650,-0.150,1.000,-2.930,-7.190,-3.310
63723668143,63723.668143,4.299275,0.690,-0.140,1.000,0.060,1.510,-0.700
63723674119,63723.674119,4.305251,0.690,-0.130,0.990,2.640,10.370,2.380
63723681173,63723.681173,4.312305,0.670,-0.130,0.960,4.290,17.950,5.020
63723687142,63723.687142,4.318274,0.650,-0.110,0.940,5.130,21.500,6.550
63723693379,63723.693379,4.324511,0.630,-0.100,0.910,6.490,22.900,6.520
63723699157,63723.699157,4.330289,0.610,-0.100,0.900,8.820,22.150,5.830
63723705123,63723.705123,4.336255,0.600,-0.090,0.900,11.510,20.370,4.140
63723711109,63723.711109,4.342241,0.590,-0.080,0.900,13.400,18.270,3.130
63723717716,63723.717716,4.348848,0.600,-0.090,0.910,13.540,16.640,2.750
63723724144,63723.724144,4.355276,0.610,-0.070,0.950,10.600,14.790,2.490
63723730644,63723.730644,4.361776,0.610,-0.070,1.000,5.540,15.250,2.550
63723738176,63723.738176,4.369308,0.600,-0.120,1.030,-1.340,17.390,2.750
63723744194,63723.744194,4.375326,0.600,-0.120,1.030,-5.740,18.790,2.410
63723750174,63723.750174,4.381306,0.610,-0.120,1.020,-9.130,19.220,2.350
63723757188,63723.757188,4.388320,0.590,-0.130,0.990,-11.310,17.760,1.440
63723763158,63723.763158,4.394290,0.610,-0.100,0.970,-12.200,14.430,-0.500
63723769165,63723.769165,4.400297,0.610,-0.130,0.940,-14.150,9.920,-2.400
63723775113,63723.775113,4.406245,0.570,-0.160,0.900,-14.470,2.020,-2.820
63723781109,63723.781109,4.412241,0.510,-0.200,0.880,-12.760,-8.090,-2.210
63723787108,63723.787108,4.418240,0.470,-0.160,0.890,-11.530,-17.770,-0.640
63723793111,63723.793111,4.424243,0.480,-0.140,0.910,-9.070,-25.440,-1.110
63723809188,63723.809188,4.440320,0.580,-0.130,0.920,-1.850,-32.180,-7.820
63723815123,63723.815123,4.446255,0.590,-0.130,0.930,-2.260,-31.790,-8.960
63723822567,63723.822567,4.453699,0.620,-0.140,0.890,-7.280,-30.310,-9.730
63723829175,63723.829175,4.460307,0.590,-0.120,0.970,-12.020,-27.910,-11.500
63723835350,63723.835350,4.466482,0.600,-0.130,0.890,-15.390,-26.000,-11.880
63723844164,63723.844164,4.475296,0.550,-0.160,0.900,-17.130,-24.340,-12.550
63723850748,63723.850748,4.481880,0.540,-0.170,0.920,-14.120,-25.020,-12.120
63723858196,63723.858196,4.489328,0.540,-0.200,0.990,-10.920,-26.640,-9.850
63723864176,63723.864176,4.495308,0.580,-0.200,0.980,-12.020,-27.190,-6.060
63723870170,63723.870170,4.501302,0.610,-0.180,0.960,-15.180,-28.080,-3.340
63723876128,63723.876128,4.507260,0.620,-0.160,0.920,-19.470,-28.900,-1.910
63723882115,63723.882115,4.513247,0.630,-0.140,0.890,-22.560,-29.390,-1.920
63723889222,63723.889222,4.520354,0.660,-0.120,0.870,-23.980,-29.340,-4.140
63723895144,63723.895144,4.526276,0.680,-0.110,0.850,-23.250,-29.100,-6.980
63723901107,63723.901107,4.532239,0.640,-0.110,0.840,-20.760,-29.860,-10.340
63723914166,63723.914166,4.545298,0.640,-0.140,0.800,-13.310,-32.170,-13.470
63723920160,63723.920160,4.551292,0.630,-0.150,0.780,-8.340,-33.660,-12.460
63723926335,63723.926335,4.557467,0.620,-0.160,0.770,-3.660,-34.890,-9.880
63723932161,63723.932161,4.563293,0.610,-0.160,0.770,0.370,-35.970,-7.390
63723938173,63723.938173,4.569305,0.590,-0.150,0.780,2.580,-36.340,-5.600
63723945159,63723.945159,4.576291,0.590,-0.140,0.810,3.270,-36.060,-5.180
63723951206,63723.951206,4.582338,0.600,-0.160,0.890,-0.050,-34.900,-3.280
63723957321,63723.957321,4.588453,0.630,-0.160,0.910,-4.920,-31.500,-0.140
63723968434,63723.968434,4.599566,0.630,-0.140,0.880,-15.590,-23.210,5.110
63723976181,63723.976181,4.607313,0.650,-0.120,0.870,-21.650,-15.820,4.150
63723982654,63723.982654,4.613786,0.680,-0.110,0.860,-24.690,-10.660,0.960
63723989175,63723.989175,4.620307,0.680,-0.080,0.860,-24.200,-5.920,-5.980
63723995165,63723.995165,4.626297,0.720,-0.080,0.860,-20.630,-2.110,-14.610
63724001238,63724.001238,4.632370,0.740,-0.100,0.850,-15.910,1.540,-22.530
63724007149,63724.007149,4.638281,0.780,-0.120,0.850,-11.440,5.340,-28.120
63724013137,63724.013137,4.644269,0.800,-0.160,0.840,-7.850,9.570,-30.240
63724019119,63724.019119,4.650251,0.780,-0.180,0.830,-5.300,12.550,-29.620
63724025161,63724.025161,4.656293,0.760,-0.190,0.810,-4.760,14.550,-26.200
63724031169,63724.031169,4.662301,0.710,-0.200,0.820,-6.030,15.310,-20.610
63724040173,63724.040173,4.671305,0.660,-0.230,0.850,-12.990,17.220,-6.700
63724046167,63724.046167,4.677299,0.630,-0.250,0.860,-18.930,17.710,4.120
63724052186,63724.052186,4.683318,0.610,-0.240,0.860,-24.020,16.780,12.640
63724058179,63724.058179,4.689311,0.600,-0.250,0.860,-27.100,15.530,18.030
63724065195,63724.065195,4.696327,0.610,-0.230,0.850,-25.760,12.660,16.580
63724073098,63724.073098,4.704230,0.600,-0.200,0.820,-20.020,8.380,7.820
63724079165,63724.079165,4.710297,0.600,-0.210,0.810,-15.390,4.840,0.550
63724085669,63724.085669,4.716801,0.650,-0.200,0.820,-13.070,3.370,-4.380
63724091107,63724.091107,4.722239,0.670,-0.200,0.820,-12.000,3.690,-6.850
63724097112,63724.097112,4.728244,0.660,-0.210,0.830,-9.770,3.850,-8.690
63724103152,63724.103152,4.734284,0.690,-0.230,0.830,-5.690,4.530,-9.620
63724109148,63724.109148,4.740280,0.680,-0.240,0.830,-0.080,4.490,-9.690
63724115145,63724.115145,4.746277,0.720,-0.250,0.820,6.470,5.570,-9.010
63724121134,63724.121134,4.752266,0.720,-0.250,0.830,11.850,7.330,-7.100
63724127125,63724.127125,4.758257,0.700,-0.220,0.820,14.690,8.660,-3.830
63724144449,63724.144449,4.775581,0.670,-0.190,0.850,6.630,8.790,9.850
63724151151,63724.151151,4.782283,0.660,-0.190,0.860,1.570,8.200,12.840
63724157144,63724.157144,4.788276,0.650,-0.180,0.860,-1.910,7.690,13.540
63724163579,63724.163579,4.794711,0.640,-0.210,0.860,-3.830,6.980,12.610
63724172210,63724.172210,4.803342,0.620,-0.220,0.860,-1.340,4.870,8.640
63724179307,63724.179307,4.810439,0.630,-0.240,0.850,5.690,3.470,2.610
63724186335,63724.186335,4.817467,0.620,-0.260,0.830,15.100,0.900,-3.890
63724192153,63724.192153,4.823285,0.600,-0.250,0.800,21.570,-2.640,-7.980
63724198113,63724.198113,4.829245,0.580,-0.240,0.780,25.740,-7.910,-10.640
63724204129,63724.204129,4.835261,0.570,-0.240,0.760,28.150,-14.350,-12.600
63724210217,63724.210217,4.841349,0.560,-0.220,0.750,29.420,-22.060,-14.210
63724216114,63724.216114,4.847246,0.560,-0.210,0.750,30.560,-29.280,-16.210
63724222109,63724.222109,4.853241,0.600,-0.210,0.750,32.020,-35.480,-17.790
63724229984,63724.229984,4.861116,0.640,-0.220,0.790,33.180,-40.380,-17.770
63724237181,63724.237181,4.868313,0.680,-0.220,0.830,33.010,-40.640,-14.870
63724243254,63724.243254,4.874386,0.710,-0.210,0.860,32.050,-37.860,-11.620
63724251196,63724.251196,4.882328,0.720,-0.210,0.860,28.320,-30.780,-5.370
63724257179,63724.257179,4.888311,0.730,-0.200,0.890,24.990,-23.180,-0.750
63724264632,63724.264632,4.895764,0.730,-0.180,0.900,22.090,-13.690,1.940
63724271201,63724.271201,4.902333,0.730,-0.150,0.900,19.110,-0.150,2.700
63724278942,63724.278942,4.910074,0.730,-0.150,0.880,17.150,10.140,1.110
63724286208,63724.286208,4.917340,0.710,-0.160,0.840,15.470,17.630,-1.420
63724293171,63724.293171,4.924303,0.680,-0.190,0.810,15.130,19.650,-2.630
63724299131,63724.299131,4.930263,0.660,-0.200,0.800,16.720,18.610,-3.400
63724305140,63724.305140,4.936272,0.650,-0.200,0.790,19.590,15.880,-3.690
63724311803,63724.311803,4.942935,0.650,-0.190,0.770,22.180,12.020,-3.600
63724319184,63724.319184,4.950316,0.650,-0.170,0.780,23.940,5.860,-3.010
63724329207,63724.329207,4.960339,0.670,-0.160,0.800,24.310,-1.080,-1.940
63724336176,63724.336176,4.967308,0.690,-0.150,0.810,24.760,-4.950,-2.460
63724342140,63724.342140,4.973272,0.700,-0.160,0.840,24.430,-7.470,-2.760
63724348341,63724.348341,4.979473,0.690,-0.150,0.840,23.420,-9.690,-3.100
63724355947,63724.355947,4.987079,0.690,-0.170,0.840,21.710,-11.820,-2.930
63724364702,63724.364702,4.995834,0.700,-0.180,0.850,19.370,-12.230,-0.980
63724371183,63724.371183,5.002315,0.710,-0.190,0.860,18.600,-10.630,0.600
63724377174,63724.377174,5.008306,0.720,-0.190,0.860,18.090,-8.320,2.110
63724384020,63724.384020,5.015152,0.720,-0.180,0.860,17.210,-4.950,3.570
63724390271,63724.390271,5.021403,0.720,-0.170,0.860,16.290,-1.270,4.460
63724396318,63724.396318,5.027450,0.720,-0.160,0.850,16.000,1.280,4.780
63724404270,63724.404270,5.035402,0.700,-0.160,0.830,15.880,3.190,4.850
63724410205,63724.410205,5.041337,0.690,-0.170,0.820,15.790,3.240,4.760
63724416147,63724.416147,5.047279,0.680,-0.170,0.820,15.940,2.170,4.120
63724422108,63724.422108,5.053240,0.660,-0.190,0.820,17.790,0.630,2.660
63724428165,63724.428165,5.059297,0.650,-0.200,0.800,22.350,-1.360,-0.060
63724435689,63724.435689,5.066821,0.640,-0.220,0.790,29.480,-4.810,-3.360
63724442353,63724.442353,5.073485,0.640,-0.200,0.790,35.570,-7.980,-5.540
63724448164,63724.448164,5.079296,0.630,-0.210,0.770,39.690,-11.590,-7.270
63724454169,63724.454169,5.085301,0.630,-0.190,0.760,42.960,-15.160,-8.490
63724460164,63724.460164,5.091296,0.640,-0.170,0.770,45.070,-18.950,-9.130
63724467262,63724.467262,5.098394,0.660,-0.160,0.780,46.580,-22.060,-8.790
63724476841,63724.476841,5.107973,0.670,-0.130,0.820,45.010,-23.660,-7.300
63724484179,63724.484179,5.115311,0.700,-0.110,0.850,37.790,-22.840,-2.790
63724490167,63724.490167,5.121299,0.710,-0.110,0.860,31.160,-20.670,0.200
63724496360,63724.496360,5.127492,0.750,-0.120,0.900,23.330,-16.080,3.360
63724502171,63724.502171,5.133303,0.760,-0.130,0.920,15.210,-9.820,6.080
63724508436,63724.508436,5.139568,0.770,-0.110,0.920,6.440,-1.730,7.800
63724514220,63724.514220,5.145352,0.770,-0.100,0.900,-0.890,5.540,8.080
63724520500,63724.520500,5.151632,0.770,-0.100,0.890,-8.460,12.670,7.630
63724527158,63724.527158,5.158290,0.770,-0.110,0.870,-15.150,18.580,7.310
63724536182,63724.536182,5.167314,0.750,-0.140,0.870,-17.790,22.400,6.520
63724542168,63724.542168,5.173300,0.730,-0.180,0.850,-14.500,22.030,6.310
63724548171,63724.548171,5.179303,0.700,-0.210,0.830,-8.560,20.050,7.730
63724554135,63724.554135,5.185267,0.680,-0.200,0.800,-1.070,16.140,9.210
63724560175,63724.560175,5.191307,0.680,-0.190,0.770,6.980,11.360,9.270
63724566582,63724.566582,5.197714,0.670,-0.190,0.760,14.500,5.530,8.950
63724573693,63724.573693,5.204825,0.680,-0.180,0.740,21.400,-0.260,7.940
63724582186,63724.582186,5.213318,0.690,-0.180,0.750,29.540,-6.110,5.730
63724589166,63724.589166,5.220298,0.700,-0.200,0.770,34.340,-8.140,5.630
63724595662,63724.595662,5.226794,0.700,-0.180,0.790,38.080,-8.340,6.990
63724602136,63724.602136,5.233268,0.710,-0.160,0.780,40.850,-7.440,8.380
63724609517,63724.609517,5.240649,0.720,-0.130,0.760,41.590,-6.030,10.310
63724616179,63724.616179,5.247311,0.730,-0.130,0.760,40.990,-4.210,12.460
63724622166,63724.622166,5.253298,0.740,-0.150,0.780,41.860,-2.320,13.310
63724628173,63724.628173,5.259305,0.750,-0.150,0.780,43.980,0.170,13.710
63724634137,63724.634137,5.265269,0.740,-0.160,0.800,47.150,2.610,14.120
63724640108,63724.640108,5.271240,0.740,-0.160,0.800,50.400,4.780,14.690
63724646135,63724.646135,5.277267,0.730,-0.160,0.810,52.820,7.340,14.980
63724662190,63724.662190,5.293322,0.690,-0.130,0.850,51.740,14.400,13.280
63724670187,63724.670187,5.301319,0.670,-0.120,0.860,49.070,18.790,12.120
63724677204,63724.677204,5.308336,0.670,-0.120,0.880,45.330,22.110,11.770
63724683176,63724.683176,5.314308,0.660,-0.110,0.860,41.710,24.110,13.270
63724689162,63724.689162,5.320294,0.690,-0.120,0.860,38.350,25.280,15.920
63724698268,63724.698268,5.329400,0.720,-0.140,0.850,34.730,26.720,23.010
63724705144,63724.705144,5.336276,0.730,-0.170,0.840,33.360,27.980,29.400
63724711203,63724.711203,5.342335,0.720,-0.160,0.830,34.120,29.280,33.130
63724717236,63724.717236,5.348368,0.700,-0.170,0.810,36.580,29.970,34.150
63724723146,63724.723146,5.354278,0.710,-0.160,0.810,40.180,30.660,32.120
63724729121,63724.729121,5.360253,0.710,-0.150,0.850,43.710,32.340,29.310
63724735232,63724.735232,5.366364,0.710,-0.160,0.870,47.280,34.530,25.730
63724741126,63724.741126,5.372258,0.650,-0.130,0.860,50.170,36.180,22.730
63724747125,63724.747125,5.378257,0.640,-0.130,0.840,52.030,36.150,19.790
63724791431,63724.791431,5.422563,0.590,-0.100,0.880,26.230,7.190,8.920
63724798176,63724.798176,5.429308,0.590,-0.100,0.860,23.560,4.660,9.210
63724804176,63724.804176,5.435308,0.610,-0.110,0.850,23.800,3.950,9.110
63724810174,63724.810174,5.441306,0.600,-0.120,0.810,25.820,2.670,8.720
63724816128,63724.816128,5.447260,0.640,-0.130,0.820,29.010,1.360,7.920
63724822263,63724.822263,5.453395,0.650,-0.130,0.800,32.500,-1.280,7.510
63724828243,63724.828243,5.459375,0.680,-0.130,0.820,36.500,-3.860,6.340
63724835405,63724.835405,5.466537,0.680,-0.140,0.850,40.200,-5.180,5.220
63724845169,63724.845169,5.476301,0.670,-0.100,0.870,44.560,-3.250,2.750
63724851168,63724.851168,5.482300,0.670,-0.080,0.870,45.690,-1.160,0.980
63724858176,63724.858176,5.489308,0.700,-0.110,0.900,45.470,2.200,0.380
63724865174,63724.865174,5.496306,0.690,-0.100,0.910,44.870,6.550,0.840
63724871517,63724.871517,5.502649,0.710,-0.110,0.890,43.850,10.340,1.880
63724879299,63724.879299,5.510431,0.690,-0.090,0.870,40.320,13.450,3.730
63724887357,63724.887357,5.518489,0.660,-0.080,0.860,33.690,13.680,7.280
63724895105,63724.895105,5.526237,0.650,-0.050,0.890,27.880,13.600,9.050
63724901181,63724.901181,5.532313,0.620,-0.050,0.900,24.270,15.340,9.010
63724907158,63724.907158,5.538290,0.610,-0.070,0.880,22.350,17.240,8.610
63724914323,63724.914323,5.545455,0.610,-0.070,0.870,20.660,18.490,8.090
63724920232,63724.920232,5.551364,0.600,-0.060,0.890,20.500,18.700,5.010
63724926159,63724.926159,5.557291,0.590,-0.070,0.910,21.630,19.820,1.740
63724934552,63724.934552,5.565684,0.580,-0.090,0.880,23.310,20.080,-0.030
63724942176,63724.942176,5.573308,0.580,-0.080,0.890,27.400,19.560,-0.960
63724948164,63724.948164,5.579296,0.580,-0.070,0.880,30.760,18.180,-1.600
63724954171,63724.954171,5.585303,0.610,-0.060,0.880,32.790,16.890,-1.370
63724960438,63724.960438,5.591570,0.650,-0.050,0.900,34.110,16.150,-0.550
63724967212,63724.967212,5.598344,0.680,-0.060,0.920,35.310,17.450,1.010
63724978420,63724.978420,5.609552,0.680,-0.060,0.940,34.820,21.130,6.700
63724985686,63724.985686,5.616818,0.680,-0.050,0.940,31.850,24.440,11.400
63724992171,63724.992171,5.623303,0.690,-0.050,0.940,28.240,27.920,15.160
63724998172,63724.998172,5.629304,0.680,-0.060,0.930,23.220,31.530,18.000
63725004215,63725.004215,5.635347,0.670,-0.060,0.920,17.500,34.560,19.940
63725011424,63725.011424,5.642556,0.640,-0.040,0.910,10.210,36.200,19.650
63725018138,63725.018138,5.649270,0.610,-0.040,0.920,5.650,36.520,17.130
63725024126,63725.024126,5.655258,0.580,-0.060,0.900,3.500,34.900,14.470
63725030127,63725.030127,5.661259,0.570,-0.070,0.900,4.150,31.970,11.630
63725036160,63725.036160,5.667292,0.580,-0.080,0.880,7.040,28.240,8.050
63725044834,63725.044834,5.675966,0.570,-0.080,0.860,10.660,23.790,4.180
63725052172,63725.052172,5.683304,0.580,-0.080,0.900,16.090,17.560,-0.760
63725058174,63725.058174,5.689306,0.590,-0.100,0.910,18.870,14.920,-2.120
63725064176,63725.064176,5.695308,0.600,-0.100,0.940,20.780,13.210,-2.290
63725070179,63725.070179,5.701311,0.610,-0.090,0.950,22.020,13.250,-2.310
63725076180,63725.076180,5.707312,0.620,-0.110,0.960,23.620,14.870,-2.080
63725082347,63725.082347,5.713479,0.620,-0.110,0.950,25.890,16.630,-1.950
63725089261,63725.089261,5.720393,0.640,-0.150,0.960,29.440,19.500,-1.190
63725095156,63725.095156,5.726288,0.650,-0.170,0.960,33.690,22.000,0.270
63725101155,63725.101155,5.732287,0.650,-0.190,0.970,39.600,25.620,1.800
63725108806,63725.108806,5.739938,0.630,-0.170,0.960,48.460,29.830,1.310
63725115452,63725.115452,5.746584,0.610,-0.150,0.930,53.820,30.410,0.520
63725121143,63725.121143,5.752275,0.570,-0.110,0.930,56.490,30.310,-0.790
63725127119,63725.127119,5.758251,0.520,-0.080,0.890,57.450,28.370,-1.590
63725133180,63725.133180,5.764312,0.490,-0.050,0.910,57.360,24.820,-1.570
63725141246,63725.141246,5.772378,0.470,0.000,0.910,54.980,17.940,-1.210
63725148518,63725.148518,5.779650,0.450,0.040,0.950,51.010,11.210,-1.440
63725157182,63725.157182,5.788314,0.470,0.070,0.950,42.820,2.750,-2.490
63725163157,63725.163157,5.794289,0.490,0.070,0.940,34.760,-3.210,-2.470
63725169236,63725.169236,5.800368,0.500,0.090,0.940,24.930,-8.550,-2.900
63725176689,63725.176689,5.807821,0.520,0.090,0.970,11.800,-13.740,-4.750
63725185159,63725.185159,5.816291,0.530,0.090,0.960,1.210,-16.730,-7.220
63725192864,63725.192864,5.823996,0.540,0.070,0.960,-9.920,-19.300,-10.430
63725200174,63725.200174,5.831306,0.590,0.020,0.940,-16.730,-19.940,-14.790
63725208176,63725.208176,5.839308,0.620,-0.040,0.920,-14.980,-17.690,-15.820
63725214295,63725.214295,5.845427,0.630,-0.060,0.920,-9.400,-14.120,-16.520
63725220168,63725.220168,5.851300,0.660,-0.060,0.920,-2.310,-9.660,-17.420
63725226263,63725.226263,5.857395,0.690,-0.060,0.910,4.690,-3.970,-17.880
63725233278,63725.233278,5.864410,0.690,-0.040,0.920,9.830,2.460,-16.820
63725239126,63725.239126,5.870258,0.690,-0.010,0.910,11.910,6.690,-15.540
63725246736,63725.246736,5.877868,0.660,-0.000,0.900,11.910,9.300,-12.440
63725254557,63725.254557,5.885689,0.640,0.000,0.890,10.490,10.470,-6.760
63725261275,63725.261275,5.892407,0.620,-0.010,0.900,8.930,10.110,-0.750
63725268194,63725.268194,5.899326,0.620,-0.020,0.900,9.970,9.400,3.740
63725274287,63725.274287,5.905419,0.620,-0.020,0.900,11.970,8.140,7.220
63725281235,63725.281235,5.912367,0.610,-0.020,0.900,14.820,5.860,9.600
63725288706,63725.288706,5.919838,0.590,-0.020,0.890,18.490,2.210,10.500
63725296255,63725.296255,5.927387,0.580,-0.010,0.900,19.270,-2.030,11.340
63725302371,63725.302371,5.933503,0.580,-0.010,0.920,17.690,-4.530,11.980
63725308172,63725.308172,5.939304,0.570,-0.000,0.930,15.300,-5.800,12.150
63725315152,63725.315152,5.946284,0.560,-0.010,0.910,12.630,-6.270,10.530
63725321175,63725.321175,5.952307,0.570,-0.030,0.930,11.420,-6.810,9.370
63725329453,63725.329453,5.960585,0.580,-0.060,0.930,12.920,-7.330,8.470
63725336615,63725.336615,5.967747,0.610,-0.060,0.930,15.330,-7.050,9.540
63725343947,63725.343947,5.975079,0.610,-0.060,0.940,17.980,-4.320,9.740
63725352230,63725.352230,5.983362,0.620,-0.080,0.920,23.600,0.870,9.710
63725359165,63725.359165,5.990297,0.640,-0.090,0.930,29.830,5.280,9.560
63725365318,63725.365318,5.996450,0.640,-0.090,0.950,36.820,9.890,9.220
63725371530,63725.371530,6.002662,0.640,-0.070,0.990,43.710,15.710,8.530
63725378230,63725.378230,6.009362,0.630,-0.040,0.960,47.370,19.860,8.810
63725386037,63725.386037,6.017169,0.600,-0.020,0.950,44.380,20.000,11.630
63725394625,63725.394625,6.025757,0.560,0.020,0.930,34.960,16.150,15.910
63725402178,63725.402178,6.033310,0.540,0.040,0.900,27.040,10.340,16.600
63725408167,63725.408167,6.039299,0.540,0.040,0.890,20.980,3.800,15.800
63725415164,63725.415164,6.046296,0.550,0.020,0.920,16.030,-3.250,13.470
63725421137,63725.421137,6.052269,0.550,-0.000,0.910,14.610,-8.720,11.130
63725427156,63725.427156,6.058288,0.550,-0.020,0.930,16.180,-12.840,9.680
63725433144,63725.433144,6.064276,0.570,-0.040,0.920,20.960,-15.440,7.010
63725439109,63725.439109,6.070241,0.560,-0.030,0.950,26.780,-15.820,3.890
63725445109,63725.445109,6.076241,0.580,-0.050,0.940,32.120,-14.470,2.600
63725451167,63725.451167,6.082299,0.590,-0.060,0.960,36.580,-11.310,2.120
63725458591,63725.458591,6.089723,0.580,-0.050,0.970,39.790,-7.130,2.380
63725465934,63725.465934,6.097066,0.560,-0.050,0.950,43.370,-3.160,3.310
63725472160,63725.472160,6.103292,0.550,-0.030,0.920,44.700,-2.210,3.470
63725478172,63725.478172,6.109304,0.540,-0.000,0.920,45.440,-2.090,3.100
63725484989,63725.484989,6.116121,0.570,-0.010,0.910,45.500,-2.460,1.880
63725491462,63725.491462,6.122594,0.590,0.000,0.900,45.050,-2.810,1.150
63725499314,63725.499314,6.130446,0.600,0.010,0.940,43.790,-2.400,1.360
63725506242,63725.506242,6.137374,0.610,0.010,0.940,41.950,-1.570,1.590
63725512193,63725.512193,6.143325,0.580,0.030,0.940,39.880,-0.980,1.800
63725520179,63725.520179,6.151311,0.590,0.070,0.910,33.050,-2.500,1.630
63725526315,63725.526315,6.157447,0.560,0.080,0.910,25.940,-5.270,0.990
63725532166,63725.532166,6.163298,0.580,0.060,0.900,19.180,-9.790,0.060
63725538173,63725.538173,6.169305,0.540,0.040,0.910,14.370,-15.130,-0.730
63725545173,63725.545173,6.176305,0.540,0.020,0.930,11.820,-21.800,-1.010
63725551581,63725.551581,6.182713,0.530,0.000,0.950,12.310,-27.150,-1.760
63725558203,63725.558203,6.189335,0.540,-0.010,0.930,15.480,-31.800,-3.860
63725567168,63725.567168,6.198300,0.560,0.000,0.940,19.660,-36.870,-9.510
63725573134,63725.573134,6.204266,0.570,0.010,0.950,21.370,-39.390,-13.130
63725579625,63725.579625,6.210757,0.590,0.000,0.950,22.120,-40.980,-16.080
63725586175,63725.586175,6.217307,0.620,0.000,0.960,22.700,-40.950,-19.070
63725593431,63725.593431,6.224563,0.650,0.000,0.950,23.330,-39.650,-21.570
63725599207,63725.599207,6.230339,0.670,0.010,0.930,24.180,-35.890,-22.320
63725607195,63725.607195,6.238327,0.690,0.000,0.930,26.030,-28.340,-21.050
63725613153,63725.613153,6.244285,0.700,0.020,0.920,27.370,-20.870,-19.920
63725619110,63725.619110,6.250242,0.690,0.070,0.880,26.210,-14.270,-18.320
63725625110,63725.625110,6.256242,0.680,0.080,0.870,21.470,-8.260,-15.560
63725631110,63725.631110,6.262242,0.700,0.070,0.870,17.330,-2.380,-12.610
63725637114,63725.637114,6.268246,0.680,0.050,0.860,16.210,1.300,-10.950
63725643110,63725.643110,6.274242,0.670,0.060,0.840,16.850,2.960,-10.380
63725649109,63725.649109,6.280241,0.630,0.090,0.830,16.750,2.110,-10.670
63725665193,63725.665193,6.296325,0.610,0.090,0.840,2.640,-5.470,-14.690
63725671165,63725.671165,6.302297,0.570,0.080,0.840,-0.960,-8.340,-20.780
63725677174,63725.677174,6.308306,0.600,0.040,0.840,-2.290,-11.010,-26.210
63725683732,63725.683732,6.314864,0.570,0.040,0.900,-0.960,-12.060,-32.350
63725690198,63725.690198,6.321330,0.600,0.040,0.910,1.190,-12.490,-36.400
63725699216,63725.699216,6.330348,0.670,0.060,0.970,-3.040,-7.970,-40.110
63725708196,63725.708196,6.339328,0.660,0.040,0.950,-3.630,3.180,-41.330
63725714174,63725.714174,6.345306,0.610,0.060,0.950,-2.520,10.320,-42.230
63725721765,63725.721765,6.352897,0.610,0.030,0.910,4.400,16.780,-40.500
63725728147,63725.728147,6.359279,0.600,0.080,0.870,13.240,20.820,-40.260
63725734170,63725.734170,6.365302,0.620,0.100,0.870,20.780,19.760,-34.600
63725741149,63725.741149,6.372281,0.640,0.090,0.860,24.060,16.720,-24.180
63725747262,63725.747262,6.378394,0.640,0.140,0.850,24.240,10.690,-15.250
63725754387,63725.754387,6.385519,0.640,0.140,0.850,19.920,2.060,-6.340
63725761162,63725.761162,6.392294,0.640,0.120,0.880,16.000,-6.610,3.370
63725769187,63725.769187,6.400319,0.630,0.100,0.890,17.080,-15.250,8.270
63725775161,63725.775161,6.406293,0.630,0.090,0.880,19.420,-20.790,9.080
63725782165,63725.782165,6.413297,0.670,0.080,0.890,21.310,-25.500,7.560
63725788122,63725.788122,6.419254,0.660,0.090,0.890,21.360,-27.160,6.090
63725796205,63725.796205,6.427337,0.690,0.080,0.880,20.180,-27.280,3.340
63725805166,63725.805166,6.436298,0.700,0.080,0.890,19.450,-25.310,0.960
63725812511,63725.812511,6.443643,0.680,0.080,0.900,19.540,-21.440,-1.190
63725819167,63725.819167,6.450299,0.660,0.090,0.870,20.560,-18.960,-2.110
63725825167,63725.825167,6.456299,0.660,0.080,0.850,23.510,-18.270,-2.580
63725831553,63725.831553,6.462685,0.680,0.060,0.840,29.220,-18.050,-2.930
63725839031,63725.839031,6.470163,0.670,0.080,0.840,35.470,-18.180,-2.900
63725846193,63725.846193,6.477325,0.660,0.100,0.840,37.370,-17.940,-2.140
63725853163,63725.853163,6.484295,0.670,0.090,0.840,37.160,-17.880,-1.370
63725862277,63725.862277,6.493409,0.680,0.100,0.850,37.530,-17.310,-1.340
63725868166,63725.868166,6.499298,0.680,0.110,0.840,37.330,-16.600,-1.420
63725874170,63725.874170,6.505302,0.660,0.110,0.850,36.400,-15.910,-1.190
63725880165,63725.880165,6.511297,0.660,0.110,0.880,34.640,-14.600,0.050
63725886182,63725.886182,6.517314,0.660,0.100,0.890,32.180,-13.040,2.400
63725892326,63725.892326,6.523458,0.670,0.090,0.900,28.020,-10.700,5.190
63725901204,63725.901204,6.532336,0.680,0.120,0.920,16.410,-4.810,9.790
63725907160,63725.907160,6.538292,0.670,0.110,0.900,8.090,-0.950,12.320
63725913293,63725.913293,6.544425,0.640,0.100,0.870,4.120,1.730,12.080
63725920297,63725.920297,6.551429,0.640,0.080,0.830,5.880,3.850,7.920
63725926160,63725.926160,6.557292,0.630,0.080,0.800,10.340,4.780,3.110
63725934584,63725.934584,6.565716,0.640,0.080,0.790,15.630,5.070,-1.160
63725941157,63725.941157,6.572289,0.650,0.110,0.780,19.010,4.670,-1.820
63725947157,63725.947157,6.578289,0.620,0.120,0.750,21.710,3.240,-1.920
63725953120,63725.953120,6.584252,0.610,0.120,0.740,25.530,1.530,-3.190
63725959112,63725.959112,6.590244,0.640,0.120,0.750,30.430,0.400,-5.500
63725965179,63725.965179,6.596311,0.670,0.110,0.760,36.500,0.950,-8.630
63725971385,63725.971385,6.602517,0.690,0.110,0.810,42.000,3.560,-10.780
63725982176,63725.982176,6.613308,0.710,0.130,0.850,44.730,12.820,-8.950
63725988156,63725.988156,6.619288,0.710,0.130,0.870,40.060,18.380,-3.940
63725994239,63725.994239,6.625371,0.720,0.130,0.910,34.500,23.710,0.110
63726000190,63726.000190,6.631322,0.700,0.140,0.910,28.520,27.680,2.470
63726006211,63726.006211,6.637343,0.700,0.100,0.920,22.120,30.960,4.730
63726013468,63726.013468,6.644600,0.680,0.100,0.950,16.730,33.940,4.600
63726020129,63726.020129,6.651261,0.650,0.090,0.940,14.380,34.960,3.980
63726026570,63726.026570,6.657702,0.620,0.100,0.940,13.570,34.490,2.780
63726032122,63726.032122,6.663254,0.600,0.090,0.930,13.440,31.790,0.890
63726038111,63726.038111,6.669243,0.600,0.110,0.920,12.840,27.330,-1.570
63726044109,63726.044109,6.675241,0.580,0.130,0.880,12.000,20.720,-4.600
63726050108,63726.050108,6.681240,0.580,0.130,0.870,11.110,13.270,-7.510
63726056925,63726.056925,6.688057,0.610,0.120,0.890,10.890,5.470,-10.260
63726063325,63726.063325,6.694457,0.660,0.120,0.910,12.120,0.180,-11.250
63726072255,63726.072255,6.703387,0.680,0.120,0.920,13.210,-2.990,-9.890
63726079171,63726.079171,6.710303,0.680,0.120,0.930,12.530,-3.070,-6.900
63726086250,63726.086250,6.717382,0.680,0.120,0.940,11.180,-1.630,-3.980
63726092375,63726.092375,6.723507,0.670,0.140,0.910,7.680,-0.170,-1.950
63726099428,63726.099428,6.730560,0.670,0.150,0.900,2.000,0.340,-0.640
63726107206,63726.107206,6.738338,0.670,0.130,0.890,-3.500,0.290,-1.150
63726113191,63726.113191,6.744323,0.660,0.120,0.890,-5.500,0.490,-1.940
63726119139,63726.119139,6.750271,0.650,0.110,0.870,-6.490,0.990,-2.810
63726125481,63726.125481,6.756613,0.630,0.110,0.870,-6.430,1.570,-3.470
63726132144,63726.132144,6.763276,0.620,0.100,0.850,-4.460,1.950,-4.920
63726138131,63726.138131,6.769263,0.620,0.110,0.850,-2.380,2.460,-6.630
63726144110,63726.144110,6.775242,0.620,0.120,0.830,-0.700,2.750,-8.110
63726169185,63726.169185,6.800317,0.650,0.110,0.850,3.540,5.020,-6.720
63726175640,63726.175640,6.806772,0.640,0.110,0.860,5.820,6.400,-5.310
63726182168,63726.182168,6.813300,0.630,0.120,0.860,7.250,7.690,-3.770
63726188174,63726.188174,6.819306,0.620,0.140,0.860,5.360,8.210,-1.690
63726194179,63726.194179,6.825311,0.630,0.140,0.880,1.980,8.340,0.120
63726200214,63726.200214,6.831346,0.640,0.130,0.890,-0.320,8.150,0.200
63726207190,63726.207190,6.838322,0.650,0.100,0.900,-1.400,8.600,-0.490
63726213820,63726.213820,6.844952,0.660,0.100,0.930,-1.540,8.950,-1.250
63726220117,63726.220117,6.851249,0.680,0.100,0.950,-1.880,10.200,-2.180
63726227165,63726.227165,6.858297,0.670,0.110,0.940,-3.980,11.660,-1.970
63726233236,63726.233236,6.864368,0.660,0.120,0.930,-6.490,12.240,-1.250
63726239158,63726.239158,6.870290,0.640,0.120,0.920,-8.630,12.060,-0.350
63726271184,63726.271184,6.902316,0.660,0.090,0.870,-0.180,-3.220,-3.650
63726287183,63726.287183,6.918315,0.650,0.090,0.870,3.770,-6.530,-3.070
63726293165,63726.293165,6.924297,0.670,0.100,0.860,3.340,-4.960,-3.050
63726299173,63726.299173,6.930305,0.680,0.100,0.860,2.490,-2.410,-3.040
63726305217,63726.305217,6.936349,0.680,0.100,0.860,1.730,0.850,-3.660
63726312332,63726.312332,6.943464,0.680,0.090,0.860,1.190,4.990,-4.560
63726320165,63726.320165,6.951297,0.660,0.090,0.850,0.730,9.710,-5.020
63726327189,63726.327189,6.958321,0.640,0.090,0.840,1.150,13.710,-6.050
63726333174,63726.333174,6.964306,0.630,0.110,0.840,0.460,16.380,-8.140
63726341178,63726.341178,6.972310,0.610,0.120,0.840,-0.460,18.900,-11.210
63726347170,63726.347170,6.978302,0.590,0.120,0.840,-0.170,19.160,-11.730
63726353159,63726.353159,6.984291,0.580,0.110,0.840,0.150,17.150,-10.780
63726360741,63726.360741,6.991873,0.570,0.140,0.850,-0.050,13.310,-8.600
63726371230,63726.371230,7.002362,0.580,0.110,0.870,-0.850,8.120,-3.620
63726377236,63726.377236,7.008368,0.590,0.100,0.880,-0.870,6.110,-1.730
63726383141,63726.383141,7.014273,0.600,0.100,0.900,0.170,5.420,-0.500
63726389476,63726.389476,7.020608,0.620,0.090,0.910,1.360,6.030,0.410
63726396160,63726.396160,7.027292,0.630,0.080,0.910,2.530,7.680,0.530
63726405739,63726.405739,7.036871,0.640,0.080,0.900,4.180,9.920,-0.810
63726412682,63726.412682,7.043814,0.650,0.070,0.910,4.870,10.930,-1.600
63726419786,63726.419786,7.050918,0.650,0.080,0.910,4.990,11.680,-2.180
63726426171,63726.426171,7.057303,0.660,0.080,0.910,4.640,12.080,-2.090
63726433322,63726.433322,7.064454,0.640,0.080,0.900,3.920,11.560,-0.920
63726439229,63726.439229,7.070361,0.630,0.090,0.900,3.440,10.400,-0.600
63726445195,63726.445195,7.076327,0.630,0.090,0.900,3.250,8.810,0.030
63726451147,63726.451147,7.082279,0.630,0.090,0.910,3.980,7.050,0.410
63726457112,63726.457112,7.088244,0.630,0.100,0.900,5.360,5.470,0.530
63726463169,63726.463169,7.094301,0.620,0.100,0.890,6.670,4.060,0.720
63726469267,63726.469267,7.100399,0.620,0.110,0.880,6.720,2.380,1.440
63726486199,63726.486199,7.117331,0.610,0.100,0.880,-0.690,0.500,5.680
63726501185,63726.501185,7.132317,0.600,0.070,0.900,-0.020,3.450,4.890
63726508487,63726.508487,7.139619,0.600,0.070,0.910,2.310,4.200,4.110
63726515193,63726.515193,7.146325,0.610,0.070,0.900,3.450,5.110,2.490
63726521208,63726.521208,7.152340,0.610,0.100,0.910,4.580,5.710,0.260
63726527180,63726.527180,7.158312,0.630,0.100,0.910,5.800,6.820,-1.280
63726533495,63726.533495,7.164627,0.640,0.080,0.900,7.390,8.640,-1.890
63726539142,63726.539142,7.170274,0.650,0.060,0.920,8.490,10.810,-1.370
63726546619,63726.546619,7.177751,0.640,0.070,0.910,9.530,13.540,-0.140
63726554162,63726.554162,7.185294,0.640,0.050,0.900,9.100,17.280,3.630
63726560118,63726.560118,7.191250,0.630,0.070,0.870,6.760,18.370,6.530
63726566125,63726.566125,7.197257,0.630,0.100,0.870,3.710,19.360,7.300
63726573194,63726.573194,7.204326,0.620,0.080,0.880,1.270,20.180,6.400
63726579476,63726.579476,7.210608,0.610,0.060,0.870,0.890,21.820,4.260
63726586427,63726.586427,7.217559,0.600,0.040,0.870,1.570,23.880,0.310
63726595289,63726.595289,7.226421,0.620,0.080,0.890,3.570,28.820,-6.820
63726601149,63726.601149,7.232281,0.620,0.080,0.880,4.290,32.350,-11.660
63726607150,63726.607150,7.238282,0.620,0.080,0.890,4.120,36.670,-14.780
63726615318,63726.615318,7.246450,0.610,0.080,0.920,4.370,42.410,-16.000
63726622521,63726.622521,7.253653,0.610,0.070,0.910,2.920,47.100,-14.660
63726629426,63726.629426,7.260558,0.580,0.080,0.900,1.420,48.630,-12.460
63726636156,63726.636156,7.267288,0.550,0.090,0.920,0.720,47.330,-8.350
63726642117,63726.642117,7.273249,0.530,0.070,0.910,1.790,43.770,-5.390
63726649506,63726.649506,7.280638,0.500,0.090,0.920,4.580,37.040,-2.500
63726655237,63726.655237,7.286369,0.500,0.060,0.910,8.000,29.890,-0.150
63726661114,63726.661114,7.292246,0.510,0.070,0.920,11.970,22.610,0.600
63726667156,63726.667156,7.298288,0.520,0.060,0.950,15.730,16.660,1.040
63726676176,63726.676176,7.307308,0.540,0.070,0.960,17.570,11.190,0.170
63726682252,63726.682252,7.313384,0.570,0.070,0.950,15.910,9.400,-0.630
63726689380,63726.689380,7.320512,0.600,0.080,0.980,11.950,10.660,-1.240
63726697701,63726.697701,7.328833,0.600,0.070,0.990,8.850,15.600,-1.880
63726704142,63726.704142,7.335274,0.610,0.060,0.990,8.430,19.360,-1.920
63726710262,63726.710262,7.341394,0.600,0.070,0.980,9.050,21.760,-1.740
63726717362,63726.717362,7.348494,0.590,0.080,0.960,8.930,22.140,-1.470
63726724190,63726.724190,7.355322,0.570,0.090,0.940,8.660,20.500,-1.770
63726730264,63726.730264,7.361396,0.570,0.090,0.920,9.130,18.060,-1.890
63726737138,63726.737138,7.368270,0.570,0.070,0.940,9.970,14.850,-1.070
63726743102,63726.743102,7.374234,0.560,0.070,0.950,11.770,12.260,0.690
63726749192,63726.749192,7.380324,0.560,0.060,0.960,14.170,9.790,2.840
63726755205,63726.755205,7.386337,0.550,0.060,0.970,16.000,7.800,4.580
63726761108,63726.761108,7.392240,0.540,0.060,0.970,16.850,5.770,5.800
63726767106,63726.767106,7.398238,0.550,0.070,0.970,16.410,3.980,5.530
63726774361,63726.774361,7.405493,0.540,0.080,0.970,14.760,2.530,4.380
63726781349,63726.781349,7.412481,0.540,0.080,0.960,12.760,2.490,2.820
63726787159,63726.787159,7.418291,0.550,0.070,0.960,11.440,3.270,2.140
63726795237,63726.795237,7.426369,0.560,0.070,0.960,11.400,6.080,1.150
63726801200,63726.801200,7.432332,0.570,0.080,0.940,12.630,9.130,0.960
63726807172,63726.807172,7.438304,0.570,0.090,0.930,13.950,12.230,1.390
63726814440,63726.814440,7.445572,0.560,0.090,0.930,14.380,15.180,3.220
63726823914,63726.823914,7.455046,0.550,0.100,0.910,12.520,17.010,6.580
63726830191,63726.830191,7.461323,0.530,0.100,0.890,10.730,16.530,8.490
63726836172,63726.836172,7.467304,0.520,0.090,0.910,8.950,15.020,9.590
63726843290,63726.843290,7.474422,0.520,0.080,0.940,7.910,13.300,9.210
63726849271,63726.849271,7.480403,0.530,0.060,0.950,8.260,12.400,7.850
63726855849,63726.855849,7.486981,0.520,0.050,0.940,9.540,11.590,5.820
63726862114,63726.862114,7.493246,0.510,0.050,0.950,11.210,10.760,2.990
63726868117,63726.868117,7.499249,0.520,0.060,0.960,12.430,10.870,0.090
63726874155,63726.874155,7.505287,0.540,0.060,0.970,12.920,11.010,-1.530
63726880931,63726.880931,7.512063,0.560,0.080,0.980,12.720,11.940,-2.210
63726889165,63726.889165,7.520297,0.560,0.080,0.980,10.290,14.350,-0.180
63726895254,63726.895254,7.526386,0.540,0.080,0.950,7.300,15.150,2.520
63726901290,63726.901290,7.532422,0.540,0.080,0.960,3.910,15.250,5.280
63726907169,63726.907169,7.538301,0.530,0.080,0.960,2.110,15.130,6.610
63726913183,63726.913183,7.544315,0.520,0.060,0.960,2.850,14.000,6.460
63726922629,63726.922629,7.553761,0.520,0.040,0.960,7.980,11.510,4.700
63726930472,63726.930472,7.561604,0.490,0.040,0.960,12.960,8.760,2.820
63726938391,63726.938391,7.569523,0.480,0.050,0.940,17.910,5.890,-0.630
63726945170,63726.945170,7.576302,0.480,0.050,0.950,21.210,3.310,-4.430
63726951193,63726.951193,7.582325,0.510,0.060,0.950,23.690,1.540,-7.690
63726958346,63726.958346,7.589478,0.540,0.060,0.980,25.760,0.990,-9.820
63726965163,63726.965163,7.596295,0.570,0.070,1.000,25.010,2.950,-8.150
63726971144,63726.971144,7.602276,0.580,0.080,1.020,22.530,7.010,-4.340
63726978105,63726.978105,7.609237,0.570,0.080,1.010,19.300,11.690,-0.290
63726986839,63726.986839,7.617971,0.550,0.080,0.970,16.410,16.520,2.410
63726993173,63726.993173,7.624305,0.520,0.110,0.940,14.820,16.790,2.080
63726999235,63726.999235,7.630367,0.510,0.090,0.960,12.350,14.980,1.970
63727005174,63727.005174,7.636306,0.490,0.080,0.970,10.610,12.520,2.410
63727011255,63727.011255,7.642387,0.490,0.060,0.970,9.440,9.040,2.760
63727017204,63727.017204,7.648336,0.500,0.060,0.990,8.440,5.180,2.520
63727027945,63727.027945,7.659077,0.490,0.070,1.000,7.760,-1.010,-0.610
63727034195,63727.034195,7.665327,0.510,0.080,1.000,7.480,-4.640,-4.020
63727040273,63727.040273,7.671405,0.530,0.090,1.010,6.350,-7.080,-5.940
63727046367,63727.046367,7.677499,0.540,0.090,1.020,4.530,-9.070,-5.650
63727053187,63727.053187,7.684319,0.530,0.100,1.020,-0.930,-10.870,-2.930
63727060202,63727.060202,7.691334,0.520,0.100,1.000,-6.950,-14.060,-0.110
63727066127,63727.066127,7.697259,0.530,0.090,0.990,-10.030,-17.250,1.360
63727072148,63727.072148,7.703280,0.520,0.080,0.970,-9.210,-21.220,0.780
63727079163,63727.079163,7.710295,0.510,0.060,0.950,-3.850,-25.100,-1.740
63727085106,63727.085106,7.716238,0.520,0.060,0.930,1.950,-28.270,-4.140
63727091131,63727.091131,7.722263,0.540,0.060,0.930,6.430,-30.200,-5.760
63727097147,63727.097147,7.728279,0.550,0.070,0.960,8.600,-30.050,-5.330
63727103106,63727.103106,7.734238,0.560,0.070,0.960,8.640,-28.110,-4.110
63727111186,63727.111186,7.742318,0.550,0.060,0.970,6.440,-23.500,-1.220
63727127185,63727.127185,7.758317,0.570,0.050,1.000,4.790,-8.840,-0.440
63727134198,63727.134198,7.765330,0.600,0.060,1.010,3.820,-0.410,-1.150
63727140177,63727.140177,7.771309,0.600,0.070,1.020,1.160,6.380,-1.540
63727146452,63727.146452,7.777584,0.590,0.070,1.010,-2.470,12.290,-1.100
63727153196,63727.153196,7.784328,0.580,0.080,0.990,-5.860,16.430,-1.070
63727159173,63727.159173,7.790305,0.570,0.090,0.980,-7.970,17.160,-0.840
63727165134,63727.165134,7.796266,0.530,0.080,0.950,-9.590,14.270,0.580
63727171166,63727.171166,7.802298,0.500,0.080,0.930,-10.560,7.800,2.370
63727177126,63727.177126,7.808258,0.470,0.100,0.920,-11.600,-1.790,3.790
63727183164,63727.183164,7.814296,0.480,0.080,0.920,-13.190,-12.520,5.470
63727191222,63727.191222,7.822354,0.500,0.070,0.930,-14.670,-24.520,6.550
63727197388,63727.197388,7.828520,0.530,0.050,0.940,-13.980,-32.890,5.600
63727204179,63727.204179,7.835311,0.560,0.010,0.970,-10.120,-37.270,2.670
63727210171,63727.210171,7.841303,0.590,0.010,1.000,-6.000,-37.040,0.730
63727217191,63727.217191,7.848323,0.610,-0.010,1.010,-2.430,-33.080,-0.610
63727223923,63727.223923,7.855055,0.610,0.010,1.030,-2.000,-27.770,-0.140
63727232781,63727.232781,7.863913,0.650,0.030,1.030,-6.700,-18.290,2.030
63727239841,63727.239841,7.870973,0.640,0.030,1.030,-12.210,-10.900,3.820
63727246179,63727.246179,7.877311,0.620,0.010,1.000,-16.900,-5.050,5.740
63727253184,63727.253184,7.884316,0.590,0.020,0.970,-18.210,-0.750,6.210
63727260151,63727.260151,7.891283,0.570,0.010,0.950,-15.590,1.390,5.280
63727267159,63727.267159,7.898291,0.560,-0.000,0.910,-10.670,1.470,4.180
63727273147,63727.273147,7.904279,0.540,0.000,0.860,-5.710,-1.050,3.010
63727279110,63727.279110,7.910242,0.520,0.030,0.820,-0.470,-5.560,1.020
63727285177,63727.285177,7.916309,0.510,0.050,0.800,3.340,-11.390,-1.600
63727294218,63727.294218,7.925350,0.510,0.060,0.780,3.420,-21.620,-3.920
63727300155,63727.300155,7.931287,0.510,0.060,0.800,0.980,-27.330,-3.150
63727306262,63727.306262,7.937394,0.500,0.040,0.820,-0.790,-31.540,-2.240
63727312152,63727.312152,7.943284,0.510,0.020,0.860,0.600,-33.690,-1.660
63727320268,63727.320268,7.951400,0.530,-0.010,0.870,5.240,-34.460,-0.760
63727326259,63727.326259,7.957391,0.570,-0.030,0.880,9.040,-33.070,-0.490
63727335397,63727.335397,7.966529,0.600,-0.010,0.910,12.310,-26.810,-1.010
63727342186,63727.342186,7.973318,0.630,0.010,0.920,11.950,-18.430,-2.090
63727348196,63727.348196,7.979328,0.660,0.010,0.930,9.850,-9.510,-3.110
63727355315,63727.355315,7.986447,0.680,0.010,0.930,8.290,2.440,-4.030
63727362177,63727.362177,7.993309,0.670,-0.010,0.940,9.020,13.690,-3.440
63727370188,63727.370188,8.001320,0.650,-0.010,0.940,10.930,24.400,-1.040
63727376116,63727.376116,8.007248,0.630,0.000,0.930,11.250,29.110,1.310
63727382109,63727.382109,8.013241,0.590,0.010,0.920,10.470,31.180,3.190
63727388109,63727.388109,8.019241,0.560,0.020,0.920,9.180,30.720,2.750
63727394209,63727.394209,8.025341,0.540,0.030,0.910,6.720,27.830,1.370
63727400170,63727.400170,8.031302,0.540,0.030,0.900,3.790,22.760,-1.420
63727406117,63727.406117,8.037249,0.550,0.030,0.910,1.560,17.340,-4.960
63727413436,63727.413436,8.044568,0.550,0.020,0.950,0.320,12.210,-8.820
63727420947,63727.420947,8.052079,0.550,0.010,0.960,-0.260,9.360,-10.470
63727428181,63727.428181,8.059313,0.550,0.000,0.960,-0.700,7.710,-10.400
63727434196,63727.434196,8.065328,0.570,0.010,0.950,-1.160,7.770,-9.950
63727440258,63727.440258,8.071390,0.570,0.000,0.950,-1.080,8.340,-10.460
63727448196,63727.448196,8.079328,0.590,-0.000,0.940,0.610,9.570,-11.890
63727455465,63727.455465,8.086597,0.580,-0.020,0.930,2.580,9.890,-12.780
63727462344,63727.462344,8.093476,0.570,-0.010,0.940,4.370,9.500,-12.690
63727468118,63727.468118,8.099250,0.560,-0.010,0.940,4.610,8.470,-10.700
63727474151,63727.474151,8.105283,0.540,-0.010,0.950,4.410,7.040,-8.690
63727480106,63727.480106,8.111238,0.540,-0.010,0.950,5.070,5.830,-7.540
63727486159,63727.486159,8.117291,0.560,-0.010,0.950,6.810,5.270,-7.620
63727494173,63727.494173,8.125305,0.580,-0.000,0.950,8.950,6.030,-9.500
63727500161,63727.500161,8.131293,0.590,0.020,0.950,9.570,7.800,-11.390
63727510185,63727.510185,8.141317,0.620,0.030,0.970,8.240,12.440,-12.320
63727516172,63727.516172,8.147304,0.630,0.030,0.970,6.960,15.360,-11.160
63727522163,63727.522163,8.153295,0.620,0.040,0.960,6.400,17.790,-9.440
63727528509,63727.528509,8.159641,0.610,0.020,0.970,6.810,19.730,-7.220
63727535199,63727.535199,8.166331,0.590,0.020,0.940,8.920,19.790,-4.460
63727541587,63727.541587,8.172719,0.570,0.020,0.920,11.770,16.960,-2.260
63727549826,63727.549826,8.180958,0.530,0.060,0.880,11.130,8.030,0.340
63727556182,63727.556182,8.187314,0.520,0.070,0.880,8.120,-1.080,1.530
63727563173,63727.563173,8.194305,0.520,0.050,0.890,7.300,-11.250,0.350
63727569139,63727.569139,8.200271,0.520,0.010,0.900,10.500,-18.720,-2.260
63727575142,63727.575142,8.206274,0.530,0.010,0.910,16.310,-24.490,-5.530
63727581114,63727.581114,8.212246,0.550,0.000,0.930,22.380,-27.880,-7.920
63727591188,63727.591188,8.222320,0.570,0.010,0.920,29.950,-29.250,-10.690
63727600738,63727.600738,8.231870,0.600,-0.000,0.940,32.030,-26.890,-9.730
63727607169,63727.607169,8.238301,0.630,0.020,0.950,31.630,-22.170,-6.760
63727613132,63727.613132,8.244264,0.660,0.000,0.970,30.980,-16.670,-3.420
63727619165,63727.619165,8.250297,0.660,0.010,0.970,30.520,-9.540,0.200
63727627380,63727.627380,8.258512,0.620,0.010,0.940,31.160,-1.560,3.570
63727634270,63727.634270,8.265402,0.610,0.010,0.920,32.610,4.550,5.210
63727643565,63727.643565,8.274697,0.580,0.010,0.930,34.030,11.600,7.220
63727650184,63727.650184,8.281316,0.570,0.030,0.910,34.090,15.220,7.970
63727656173,63727.656173,8.287305,0.570,0.050,0.910,33.660,17.370,7.530
63727663183,63727.663183,8.294315,0.560,0.070,0.890,29.830,18.560,6.630
63727669145,63727.669145,8.300277,0.560,0.080,0.890,24.980,18.900,7.010
63727675147,63727.675147,8.306279,0.550,0.070,0.890,20.000,18.370,7.050
63727681167,63727.681167,8.312299,0.560,0.060,0.900,16.490,17.400,6.240
63727687126,63727.687126,8.318258,0.550,0.060,0.910,14.720,16.180,4.140
63727697128,63727.697128,8.328260,0.570,0.060,0.900,13.340,14.690,1.010
63727705178,63727.705178,8.336310,0.550,0.050,0.900,11.050,12.500,-1.790
63727711750,63727.711750,8.342882,0.570,0.040,0.910,8.900,11.600,-1.760
63727718174,63727.718174,8.349306,0.600,0.040,0.910,7.740,12.340,-1.450
63727725362,63727.725362,8.356494,0.600,0.040,0.930,7.690,14.700,-0.750
63727731191,63727.731191,8.362323,0.600,0.040,0.930,7.950,17.560,0.600
63727738325,63727.738325,8.369457,0.590,0.060,0.920,5.820,20.720,3.560
63727744386,63727.744386,8.375518,0.610,0.060,0.930,3.160,23.800,5.440
63727751309,63727.751309,8.382441,0.600,0.050,0.950,1.630,27.100,6.700
63727758281,63727.758281,8.389413,0.590,0.040,0.950,1.730,29.920,7.570
63727764447,63727.764447,8.395579,0.590,0.040,0.950,2.000,31.790,8.850
63727770271,63727.770271,8.401403,0.570,0.040,0.960,2.260,32.920,9.950
63727777363,63727.777363,8.408495,0.550,0.020,0.950,2.820,32.950,11.040
63727784144,63727.784144,8.415276,0.530,0.020,0.940,4.120,31.850,10.890
63727790299,63727.790299,8.421431,0.510,0.020,0.940,4.630,30.850,10.700
63727796164,63727.796164,8.427296,0.510,0.020,0.940,4.700,29.850,10.470
63727804132,63727.804132,8.435264,0.530,0.040,0.950,4.180,31.660,9.370
63727810458,63727.810458,8.441590,0.550,0.060,0.940,3.080,34.320,7.980
63727817175,63727.817175,8.448307,0.580,0.030,0.970,2.700,39.480,7.440
63727823167,63727.823167,8.454299,0.580,0.020,0.970,4.310,44.500,8.630
63727829306,63727.829306,8.460438,0.570,0.030,0.930,7.740,46.840,9.100
63727835179,63727.835179,8.466311,0.550,-0.010,0.940,12.460,47.110,8.440
63727844721,63727.844721,8.475853,0.540,0.030,0.950,12.560,48.950,13.820
63727853218,63727.853218,8.484350,0.530,0.070,0.900,7.440,48.750,15.660
63727859224,63727.859224,8.490356,0.520,0.060,0.870,2.720,43.820,15.360
63727865390,63727.865390,8.496522,0.530,0.060,0.880,-2.610,37.210,14.440
63727872197,63727.872197,8.503329,0.510,0.020,1.010,-9.130,36.410,16.670
63727878346,63727.878346,8.509478,0.490,0.030,0.960,-12.640,36.110,18.780
63727884136,63727.884136,8.515268,0.450,0.020,0.990,-12.870,37.540,19.010
63727890133,63727.890133,8.521265,0.450,-0.000,0.920,-8.370,36.820,17.570
63727896120,63727.896120,8.527252,0.460,0.000,0.920,-0.310,38.170,13.920
63727902751,63727.902751,8.533883,0.470,0.000,0.900,9.980,38.720,9.360
63727911175,63727.911175,8.542307,0.470,-0.010,0.950,21.440,40.900,4.380
63727917148,63727.917148,8.548280,0.450,0.000,0.990,26.260,42.350,2.460
63727924451,63727.924451,8.555583,0.470,0.030,0.970,28.180,42.890,1.440
63727931186,63727.931186,8.562318,0.480,0.020,0.980,28.640,42.990,0.630
63727937257,63727.937257,8.568389,0.490,0.010,1.010,25.130,41.300,2.790
63727944900,63727.944900,8.576032,0.450,0.000,1.040,22.170,41.500,5.020
63727952397,63727.952397,8.583529,0.420,-0.010,1.040,22.050,39.890,5.740
63727960427,63727.960427,8.591559,0.420,-0.010,1.040,24.000,35.890,4.020
63727967153,63727.967153,8.598285,0.420,-0.020,1.040,26.610,32.870,2.120
63727973148,63727.973148,8.604280,0.410,-0.020,1.070,27.790,30.560,0.460
63727980047,63727.980047,8.611179,0.400,-0.030,1.080,29.790,29.220,-0.610
63727986275,63727.986275,8.617407,0.410,-0.030,1.070,30.000,27.920,-0.790
63727992138,63727.992138,8.623270,0.440,-0.010,1.090,27.220,27.360,-0.560
63727999158,63727.999158,8.630290,0.360,0.460,1.630,-25.180,4.820,31.040
63728005113,63728.005113,8.636245,0.420,-0.410,0.770,-12.520,-5.360,14.790
63728011120,63728.011120,8.642252,0.480,-0.200,1.090,7.570,1.390,6.080
63728017097,63728.017097,8.648229,0.440,-0.120,1.020,37.420,1.240,-6.410
63728035183,63728.035183,8.666315,0.450,0.040,1.000,8.020,-0.120,-5.400
63728041157,63728.041157,8.672289,0.450,0.060,1.020,5.800,-2.530,-4.150
63728051186,63728.051186,8.682318,0.390,0.020,0.980,15.850,-5.890,-5.690
63728057153,63728.057153,8.688285,0.370,0.050,0.970,13.850,-9.660,-6.290
63728063115,63728.063115,8.694247,0.390,-0.010,0.940,21.440,-12.660,-9.860
63728069260,63728.069260,8.700392,0.390,0.040,1.000,21.540,-16.630,-10.870
63728076298,63728.076298,8.707430,0.400,0.010,0.990,23.680,-19.570,-15.250
63728084154,63728.084154,8.715286,0.400,0.040,1.010,24.780,-21.630,-17.710
63728090125,63728.090125,8.721257,0.410,0.010,1.000,27.130,-22.820,-20.050
63728096128,63728.096128,8.727260,0.430,0.010,0.990,27.220,-24.270,-19.860
63728102103,63728.102103,8.733235,0.450,-0.010,1.000,25.880,-23.470,-19.300
63728108270,63728.108270,8.739402,0.470,0.030,1.060,24.960,-23.020,-15.300
63728115969,63728.115969,8.747101,0.510,-0.020,1.010,24.760,-20.230,-13.860
63728122180,63728.122180,8.753312,0.490,-0.020,0.980,18.930,-19.010,-13.110
63728128171,63728.128171,8.759303,0.490,0.030,0.950,21.270,-18.780,-15.760
63728134215,63728.134215,8.765347,0.480,0.080,1.000,17.860,-19.860,-19.570
63728140173,63728.140173,8.771305,0.470,0.070,1.000,17.730,-21.300,-24.200
63728146181,63728.146181,8.777313,0.470,0.080,1.030,21.910,-18.080,-34.260
63728155216,63728.155216,8.786348,0.520,0.010,1.060,22.400,-19.270,-41.860
63728161411,63728.161411,8.792543,0.560,0.010,1.070,28.380,-16.340,-50.340
63728169179,63728.169179,8.800311,0.590,0.000,1.070,45.040,-11.340,-62.120
63728175160,63728.175160,8.806292,0.510,0.130,1.180,43.950,-16.430,-62.700
63728181328,63728.181328,8.812460,0.500,0.060,1.060,55.180,-11.160,-74.780
63728187142,63728.187142,8.818274,0.520,0.100,1.090,51.820,-12.210,-76.960
63728193142,63728.193142,8.824274,0.450,0.010,0.990,56.500,-9.160,-88.460
63728199196,63728.199196,8.830328,0.500,0.150,1.060,45.730,-11.710,-94.200
63728207162,63728.207162,8.838294,0.450,0.210,0.930,41.270,-12.140,-101.970
63728213166,63728.213166,8.844298,0.480,0.150,0.980,37.500,-10.820,-108.110
63728219171,63728.219171,8.850303,0.390,0.090,0.960,34.240,-13.730,-107.920
63728228640,63728.228640,8.859772,0.380,-0.120,1.040,36.080,-15.650,-98.930
63728236142,63728.236142,8.867274,0.340,-0.070,0.980,42.350,-24.240,-89.500
63728243870,63728.243870,8.875002,0.250,-0.100,0.890,64.690,-28.760,-95.500
63728250229,63728.250229,8.881361,0.340,0.020,0.990,68.230,-37.650,-95.970
63728256165,63728.256165,8.887297,0.280,-0.010,0.880,92.110,-46.700,-102.410
63728263223,63728.263223,8.894355,0.430,0.220,0.920,103.150,-53.330,-113.650
63728271199,63728.271199,8.902331,0.440,0.280,0.960,102.720,-70.290,-120.470
63728277147,63728.277147,8.908279,0.390,0.300,0.760,121.740,-70.290,-135.620
63728284783,63728.284783,8.915915,0.370,0.300,0.840,109.600,-84.720,-127.270
63728292173,63728.292173,8.923305,0.360,0.390,0.820,93.530,-86.580,-118.490
63728298255,63728.298255,8.929387,0.320,0.340,0.770,80.530,-93.790,-100.150
63728304134,63728.304134,8.935266,0.370,0.270,0.790,82.530,-87.340,-91.740
63728310399,63728.310399,8.941531,0.350,0.190,0.920,67.660,-95.310,-65.650
63728316915,63728.316915,8.948047,0.480,0.190,0.940,74.930,-85.150,-58.410
63728324168,63728.324168,8.955300,0.550,0.180,1.120,69.600,-82.560,-40.230
63728330312,63728.330312,8.961444,1.240,0.170,0.770,-10.500,-6.500,-20.320
63728339173,63728.339173,8.970305,0.680,0.470,0.740,-14.580,-10.890,-21.040
63728345163,63728.345163,8.976295,0.460,0.420,1.090,2.850,-4.200,-37.730
63728351159,63728.351159,8.982291,0.440,0.380,0.970,-3.680,-17.680,-32.320
63728358234,63728.358234,8.989366,0.570,0.470,0.860,12.920,-12.700,-53.190
63728365892,63728.365892,8.997024,0.560,0.500,0.870,17.220,-17.270,-67.760
63728374193,63728.374193,9.005325,0.750,0.550,0.920,13.400,-20.730,-82.840
63728380278,63728.380278,9.011410,0.550,0.450,0.820,5.910,-22.780,-83.790
63728386771,63728.386771,9.017903,0.630,0.420,0.690,-0.760,-22.140,-77.770
63728394186,63728.394186,9.025318,0.670,0.180,0.720,-4.960,-22.760,-61.210
63728400145,63728.400145,9.031277,0.640,0.320,0.760,-3.330,-16.490,-51.510
63728406152,63728.406152,9.037284,0.490,0.270,0.600,2.030,-17.010,-38.920
63728412169,63728.412169,9.043301,0.570,0.260,0.820,5.470,-9.890,-27.890
63728419416,63728.419416,9.050548,0.550,0.240,0.900,5.240,-4.920,-12.870
63728428189,63728.428189,9.059321,0.520,0.320,0.860,5.910,1.080,3.050
63728435473,63728.435473,9.066605,0.520,0.360,0.910,7.910,3.240,6.150
63728442175,63728.442175,9.073307,0.540,0.330,0.910,6.670,2.170,6.090
63728448183,63728.448183,9.079315,0.540,0.340,0.910,8.720,2.780,5.330
63728454441,63728.454441,9.085573,0.500,0.370,0.900,8.500,1.690,3.880
63728461364,63728.461364,9.092496,0.520,0.370,0.860,7.740,2.170,4.240
63728468211,63728.468211,9.099343,0.510,0.380,0.850,3.010,2.400,7.920
63728476190,63728.476190,9.107322,0.510,0.370,0.850,-2.080,2.670,11.740
63728483167,63728.483167,9.114299,0.630,0.150,0.880,-5.040,2.780,19.620
63728489172,63728.489172,9.120304,0.520,0.240,0.920,-4.820,7.560,26.920
63728497174,63728.497174,9.128306,0.460,0.160,0.800,-19.530,9.920,50.810
63728503270,63728.503270,9.134402,0.460,0.340,0.810,-31.070,12.210,66.600
63728509232,63728.509232,9.140364,0.520,0.340,0.830,-36.780,13.180,76.470
63728515138,63728.515138,9.146270,0.530,0.290,0.850,-42.820,12.110,81.210
63728522040,63728.522040,9.153172,0.530,0.250,0.910,-40.110,12.950,79.860
63728530227,63728.530227,9.161359,0.510,0.150,0.920,-34.550,12.290,77.280
63728536166,63728.536166,9.167298,0.470,0.120,0.900,-34.850,11.600,81.390
63728542174,63728.542174,9.173306,0.510,0.150,0.970,-34.310,14.520,86.670
63728548619,63728.548619,9.179751,0.500,0.240,0.950,-40.760,14.470,93.680
63728555294,63728.555294,9.186426,0.470,0.240,0.810,-49.660,13.830,103.590
63728564327,63728.564327,9.195459,0.440,0.240,0.790,-62.840,13.280,118.560
63728571198,63728.571198,9.202330,0.450,0.250,0.830,-80.080,13.710,134.320
63728577217,63728.577217,9.208349,0.490,0.120,0.880,-90.430,13.050,144.990
63728583769,63728.583769,9.214901,0.520,0.030,1.030,-90.520,17.560,157.890
63728590951,63728.590951,9.222083,0.420,-0.070,1.050,-85.280,17.220,170.260
63728597145,63728.597145,9.228277,0.540,-0.010,1.200,-79.660,19.880,172.290
63728603190,63728.603190,9.234322,0.510,-0.120,1.040,-68.670,18.180,173.180
63728610416,63728.610416,9.241548,0.530,-0.060,1.090,-56.260,19.080,173.590
63728616144,63728.616144,9.247276,0.540,0.140,1.080,-49.740,17.450,168.990
63728624653,63728.624653,9.255785,0.620,0.130,1.000,-42.120,15.270,162.600
63728631174,63728.631174,9.262306,0.640,0.190,0.920,-29.250,11.330,141.330
63728637156,63728.637156,9.268288,0.730,0.240,1.040,-22.500,7.530,120.890
63728643241,63728.643241,9.274373,0.850,0.240,1.080,-0.730,4.690,80.340
63728649177,63728.649177,9.280309,0.740,0.140,1.070,12.730,2.750,50.370
63728656183,63728.656183,9.287315,0.640,0.110,1.010,23.400,1.300,30.200
63728665616,63728.665616,9.296748,0.580,0.080,0.950,28.050,1.300,19.160
63728672608,63728.672608,9.303740,0.550,0.160,0.920,23.980,2.080,16.660
63728680179,63728.680179,9.311311,0.520,0.140,0.870,12.930,2.340,22.760
63728688378,63728.688378,9.319510,0.530,0.100,0.840,2.090,3.600,33.950
63728695156,63728.695156,9.326288,0.500,0.040,0.860,-9.160,3.760,44.470
63728701135,63728.701135,9.332267,0.540,0.030,0.910,-15.980,2.900,52.690
63728707244,63728.707244,9.338376,0.690,0.090,0.980,-14.460,-17.850,36.090
63728713149,63728.713149,9.344281,0.850,-0.110,1.250,26.500,-1.340,14.200
63728719728,63728.719728,9.350860,0.720,-0.070,0.990,37.540,6.930,15.770
63728728179,63728.728179,9.359311,0.490,0.170,0.880,22.720,2.550,15.450
63728735166,63728.735166,9.366298,0.530,0.130,0.910,10.030,-1.830,15.600
63728741169,63728.741169,9.372301,0.670,0.070,0.980,13.890,0.440,9.920
63728747172,63728.747172,9.378304,0.630,-0.040,0.860,16.140,1.650,12.120
63728753460,63728.753460,9.384592,0.570,0.020,0.910,13.420,1.070,12.050
63728760949,63728.760949,9.392081,0.540,0.030,0.960,12.260,0.950,8.610
63728768460,63728.768460,9.399592,0.560,0.020,0.930,10.490,0.500,7.560
63728775865,63728.775865,9.406997,0.590,0.020,0.920,7.310,-0.890,5.080
63728783273,63728.783273,9.414405,0.580,0.000,0.960,7.210,-0.490,3.890
63728790165,63728.790165,9.421297,0.540,0.010,0.940,8.380,-0.310,3.690
63728797185,63728.797185,9.428317,0.550,0.030,0.930,6.430,-1.820,5.360
63728803133,63728.803133,9.434265,0.560,0.020,0.930,4.610,-3.080,6.900
63728809455,63728.809455,9.440587,0.570,0.010,0.950,4.960,-2.920,6.580
63728816161,63728.816161,9.447293,0.580,-0.010,0.960,7.050,-1.330,4.720
63728822640,63728.822640,9.453772,0.590,-0.030,0.960,9.660,0.760,2.340
63728831171,63728.831171,9.462303,0.600,-0.020,0.950,13.980,4.000,-0.990
63728837159,63728.837159,9.468291,0.580,-0.010,0.950,15.890,5.470,-2.440
63728843172,63728.843172,9.474304,0.560,0.000,0.950,16.840,5.970,-2.810
63728849178,63728.849178,9.480310,0.560,0.010,0.950,17.020,5.800,-2.660
63728855168,63728.855168,9.486300,0.550,0.020,0.920,15.630,4.920,-1.860
63728861400,63728.861400,9.492532,0.550,0.020,0.930,14.020,3.650,-0.270
63728871575,63728.871575,9.502707,0.550,0.020,0.940,12.030,2.170,1.210
63728878186,63728.878186,9.509318,0.570,0.000,0.940,10.550,1.330,2.240
63728884156,63728.884156,9.515288,0.580,-0.010,0.960,13.080,2.270,1.390
63728890165,63728.890165,9.521297,0.600,-0.020,0.950,14.810,4.350,-0.980
63728896179,63728.896179,9.527311,0.590,-0.030,0.970,18.840,6.630,-3.470
63728902815,63728.902815,9.533947,0.560,0.020,0.930,20.090,6.580,-3.010
63728910178,63728.910178,9.541310,0.470,0.120,0.890,15.860,3.860,-0.050
63728916115,63728.916115,9.547247,0.530,0.080,0.920,4.890,-0.400,2.870
63728922108,63728.922108,9.553240,0.580,-0.050,0.990,8.670,0.030,3.040
63728937331,63728.937331,9.568463,0.570,-0.020,0.980,15.910,4.180,-0.670
63728944166,63728.944166,9.575298,0.510,0.080,0.890,14.900,3.240,1.160
63728958190,63728.958190,9.589322,0.580,-0.040,0.980,10.260,1.100,2.270
63728964146,63728.964146,9.595278,0.580,0.000,0.940,11.950,2.170,1.340
63729001358,63729.001358,9.632490,0.570,0.000,0.940,12.890,2.550,0.790
63729038715,63729.038715,9.669847,0.560,0.020,0.950,12.200,2.150,0.950
63729045174,63729.045174,9.676306,0.550,0.010,0.940,11.210,2.000,1.730
63729051156,63729.051156,9.682288,0.570,-0.000,0.950,11.590,1.920,1.560
63729057393,63729.057393,9.688525,0.570,0.000,0.950,12.400,2.260,1.160
63729064363,63729.064363,9.695495,0.560,0.010,0.940,11.970,2.150,1.360
63729071393,63729.071393,9.702525,0.560,0.010,0.930,11.330,1.950,1.470
63729077762,63729.077762,9.708894,0.560,0.000,0.950,11.730,1.830,1.450
63729084118,63729.084118,9.715250,0.570,0.010,0.940,12.260,2.230,1.250
63729090160,63729.090160,9.721292,0.560,0.020,0.940,12.200,2.140,1.250
63729096149,63729.096149,9.727281,0.560,0.020,0.950,11.630,1.860,1.370
63729102149,63729.102149,9.733281,0.560,0.010,0.950,11.630,2.020,1.360
63729108158,63729.108158,9.739290,0.560,0.010,0.950,12.030,2.180,1.440
63729114138,63729.114138,9.745270,0.560,0.010,0.950,12.200,2.170,1.280
63729120130,63729.120130,9.751262,0.560,0.010,0.940,11.950,1.950,1.420
63729154296,63729.154296,9.785428,0.560,0.010,0.940,11.740,2.020,1.400
63729164875,63729.164875,9.796007,0.560,0.010,0.950,12.000,1.970,1.280
63729171279,63729.171279,9.802411,0.560,0.010,0.950,11.940,2.030,1.340
63729178214,63729.178214,9.809346,0.560,0.010,0.940,11.500,1.890,1.530
63729184218,63729.184218,9.815350,0.570,0.010,0.940,11.890,1.890,1.400
63729191226,63729.191226,9.822358,0.570,0.010,0.940,12.200,2.180,1.300
63729199178,63729.199178,9.830310,0.560,0.010,0.950,11.910,2.000,1.330
63729209159,63729.209159,9.840291,0.560,0.010,0.940,11.770,1.820,1.400
63729215112,63729.215112,9.846244,0.560,0.000,0.950,12.080,2.000,1.300
63729221253,63729.221253,9.852385,0.560,0.010,0.950,11.850,2.060,1.330
63729227216,63729.227216,9.858348,0.560,0.010,0.950,11.740,2.050,1.330
63729233146,63729.233146,9.864278,0.560,0.010,0.940,11.910,1.940,1.270
63729239159,63729.239159,9.870291,0.560,0.010,0.950,12.020,2.020,1.390
63729245135,63729.245135,9.876267,0.560,0.010,0.950,11.950,2.210,1.300
63729259180,63729.259180,9.890312,0.560,0.010,0.940,11.730,2.140,1.330
63729265164,63729.265164,9.896296,0.570,0.010,0.940,11.760,1.950,1.270
63729271162,63729.271162,9.902294,0.560,0.010,0.950,12.080,2.090,1.340
63729277173,63729.277173,9.908305,0.560,0.010,0.940,11.860,2.120,1.240
63729284204,63729.284204,9.915336,0.560,0.010,0.950,11.850,2.060,1.340
63729290717,63729.290717,9.921849,0.560,0.010,0.950,11.770,2.030,1.360
63729297809,63729.297809,9.928941,0.560,0.010,0.950,11.950,1.950,1.300
63729307485,63729.307485,9.938617,0.560,0.010,0.950,12.000,2.030,1.420
63729314206,63729.314206,9.945338,0.560,0.010,0.950,11.730,2.050,1.420
63729320165,63729.320165,9.951297,0.560,0.010,0.940,11.890,2.080,1.370
63729326357,63729.326357,9.957489,0.560,0.010,0.940,11.890,2.200,1.400
63729333141,63729.333141,9.964273,0.560,0.010,0.950,11.800,2.230,1.340
63729340137,63729.340137,9.971269,0.560,0.010,0.940,11.920,2.110,1.470
63729347471,63729.347471,9.978603,0.560,0.010,0.940,11.830,2.120,1.360
63729353965,63729.353965,9.985097,0.560,0.010,0.950,11.880,2.080,1.190
63729363532,63729.363532,9.994664,0.560,0.010,0.950,11.820,2.090,1.280
63729372851,63729.372851,10.003983,0.560,0.010,0.950,11.890,2.150,1.340
63729379695,63729.379695,10.010827,0.560,0.010,0.940,11.970,2.080,1.280
63729387207,63729.387207,10.018339,0.550,0.010,0.940,11.790,2.090,1.390
63729394245,63729.394245,10.025377,0.560,0.010,0.940,11.740,1.940,1.420
63729401487,63729.401487,10.032619,0.560,0.010,0.950,12.000,2.310,1.420
63729411249,63729.411249,10.042381,0.560,0.010,0.940,11.850,2.080,1.540
63729418164,63729.418164,10.049296,0.570,0.010,0.940,11.760,2.140,1.310
63729424246,63729.424246,10.055378,0.560,0.000,0.940,11.850,2.030,1.300
63729430472,63729.430472,10.061604,0.560,0.010,0.950,12.060,1.880,1.400
63729437135,63729.437135,10.068267,0.560,0.010,0.940,11.890,2.260,1.440
63729443323,63729.443323,10.074455,0.560,0.010,0.940,11.620,2.110,1.310
63729450917,63729.450917,10.082049,0.560,0.010,0.940,11.890,1.980,1.270
63729457494,63729.457494,10.088626,0.560,0.020,0.940,11.890,2.200,1.280
63729463118,63729.463118,10.094250,0.560,0.010,0.940,11.980,2.120,1.420
63729469151,63729.469151,10.100283,0.560,0.010,0.960,11.920,2.170,1.210
63729476012,63729.476012,10.107144,0.560,0.010,0.950,11.880,2.060,1.330
63729482273,63729.482273,10.113405,0.560,0.010,0.940,11.950,2.120,1.400
63729489208,63729.489208,10.120340,0.560,0.010,0.950,11.860,2.050,1.470
63729496252,63729.496252,10.127384,0.560,0.010,0.940,11.820,2.080,1.370
63729503211,63729.503211,10.134343,0.550,0.010,0.940,12.110,2.230,1.330
63729510677,63729.510677,10.141809,0.560,0.010,0.950,11.890,2.000,1.500
63729517339,63729.517339,10.148471,0.560,0.010,0.950,11.860,2.030,1.510
63729523134,63729.523134,10.154266,0.570,0.010,0.940,11.820,2.150,1.470
63729529128,63729.529128,10.160260,0.560,0.010,0.940,11.850,2.200,1.370
63729535249,63729.535249,10.166381,0.560,0.010,0.940,12.110,2.080,1.310
63729544509,63729.544509,10.175641,0.560,0.010,0.950,11.600,1.940,1.470
63729551153,63729.551153,10.182285,0.560,0.010,0.940,11.830,2.210,1.420
63729557592,63729.557592,10.188724,0.560,0.010,0.940,12.140,2.210,1.310
63729564166,63729.564166,10.195298,0.560,0.020,0.950,11.740,2.200,1.400
63729570186,63729.570186,10.201318,0.560,0.010,0.950,11.730,2.140,1.330
63729576195,63729.576195,10.207327,0.570,0.010,0.950,11.850,2.180,1.390
63729587460,63729.587460,10.218592,0.560,0.010,0.950,12.060,2.150,1.360
63729595168,63729.595168,10.226300,0.560,0.010,0.940,11.790,2.060,1.270
63729601637,63729.601637,10.232769,0.560,0.010,0.950,11.850,2.110,1.300
63729608504,63729.608504,10.239636,0.570,0.010,0.950,11.980,1.860,1.420
63729615150,63729.615150,10.246282,0.560,0.010,0.940,12.030,2.110,1.240
63729621153,63729.621153,10.252285,0.560,0.010,0.940,11.880,2.060,1.450
63729627130,63729.627130,10.258262,0.560,0.010,0.940,11.940,2.020,1.330
63729633142,63729.633142,10.264274,0.560,0.010,0.940,11.830,1.910,1.500
63729641493,63729.641493,10.272625,0.560,0.010,0.950,12.060,2.170,1.270
63729650148,63729.650148,10.281280,0.560,0.010,0.930,11.950,2.080,1.310
63729656161,63729.656161,10.287293,0.560,0.020,0.950,12.000,2.140,1.360
63729662152,63729.662152,10.293284,0.560,0.010,0.940,11.800,2.210,1.310
63729668167,63729.668167,10.299299,0.570,0.000,0.950,11.980,2.180,1.250
63729674162,63729.674162,10.305294,0.560,0.010,0.950,12.120,2.150,1.210
63729680234,63729.680234,10.311366,0.560,0.010,0.940,11.830,2.150,1.370
63729690299,63729.690299,10.321431,0.560,0.010,0.940,11.790,2.230,1.300
63729697180,63729.697180,10.328312,0.560,0.010,0.950,12.020,2.210,1.590
63729703400,63729.703400,10.334532,0.560,0.010,0.940,12.080,2.110,1.480
63729709171,63729.709171,10.340303,0.560,0.010,0.940,11.790,2.060,1.420
63729716168,63729.716168,10.347300,0.560,0.010,0.950,11.800,2.110,1.360
63729722421,63729.722421,10.353553,0.560,0.010,0.950,11.710,2.090,1.240
63729729147,63729.729147,10.360279,0.560,0.010,0.940,11.800,2.150,1.440
63729735117,63729.735117,10.366249,0.560,0.020,0.950,11.760,2.230,1.370
63729741121,63729.741121,10.372253,0.560,0.020,0.950,11.880,2.080,1.540
63729751967,63729.751967,10.383099,0.560,0.010,0.940,11.710,1.920,1.500
63729758159,63729.758159,10.389291,0.560,0.010,0.950,11.950,1.940,1.400
63729764682,63729.764682,10.395814,0.560,0.010,0.950,11.860,2.090,1.280
63729771151,63729.771151,10.402283,0.560,0.010,0.950,12.030,2.200,1.310
63729778159,63729.778159,10.409291,0.560,0.010,0.950,11.970,2.060,1.390
63729785680,63729.785680,10.416812,0.560,0.010,0.950,11.760,2.170,1.400
63729794955,63729.794955,10.426087,0.560,0.010,0.950,11.970,2.050,1.510
63729801169,63729.801169,10.432301,0.570,0.010,0.950,11.830,2.030,1.360
63729807189,63729.807189,10.438321,0.570,0.010,0.940,11.790,1.910,1.340
63729814178,63729.814178,10.445310,0.560,0.010,0.940,11.790,1.920,1.500
63729820168,63729.820168,10.451300,0.570,0.010,0.940,11.950,2.110,1.330
63729828166,63729.828166,10.459298,0.570,0.010,0.950,11.910,2.000,1.370
63729834138,63729.834138,10.465270,0.560,0.010,0.950,12.090,2.020,1.300
63729840109,63729.840109,10.471241,0.560,0.010,0.940,11.940,2.030,1.450
63729846108,63729.846108,10.477240,0.560,0.010,0.940,11.880,2.090,1.340
63729855173,63729.855173,10.486305,0.560,0.010,0.950,11.850,2.090,1.340
63729861161,63729.861161,10.492293,0.560,0.020,0.940,11.890,2.020,1.160
63729867171,63729.867171,10.498303,0.560,0.010,0.950,11.890,1.920,1.310
63729873165,63729.873165,10.504297,0.560,0.010,0.940,11.920,1.980,1.390
63729879259,63729.879259,10.510391,0.560,0.010,0.950,11.820,2.150,1.330
63729885643,63729.885643,10.516775,0.560,0.010,0.950,12.030,2.050,1.370
63729894403,63729.894403,10.525535,0.560,0.010,0.940,11.830,2.200,1.310
63729901773,63729.901773,10.532905,0.560,0.010,0.940,11.730,2.080,1.340
63729908411,63729.908411,10.539543,0.560,0.010,0.940,11.890,2.000,1.280
63729915159,63729.915159,10.546291,0.560,0.010,0.950,11.760,2.140,1.210
63729921171,63729.921171,10.552303,0.560,0.010,0.940,11.790,1.920,1.240
63729927311,63729.927311,10.558443,0.570,0.010,0.950,11.950,2.000,1.160
63729933152,63729.933152,10.564284,0.560,0.010,0.940,11.920,2.000,1.500
63729939103,63729.939103,10.570235,0.560,0.010,0.950,11.860,2.090,1.450
63729945107,63729.945107,10.576239,0.560,0.010,0.940,12.050,2.000,1.400
63729952864,63729.952864,10.583996,0.560,0.010,0.950,11.860,2.230,1.360
63729960161,63729.960161,10.591293,0.570,0.010,0.940,12.030,1.860,1.340
63729966158,63729.966158,10.597290,0.560,0.010,0.950,11.890,1.940,1.250
63729973160,63729.973160,10.604292,0.560,0.010,0.950,11.740,1.950,1.280
63729979413,63729.979413,10.610545,0.560,0.010,0.950,11.940,2.110,1.280
63729986238,63729.986238,10.617370,0.560,0.010,0.940,11.680,2.000,1.390
63729994310,63729.994310,10.625442,0.560,0.020,0.950,11.920,2.000,1.370
63730002187,63730.002187,10.633319,0.550,0.010,0.940,12.050,2.020,1.470
63730008169,63730.008169,10.639301,0.560,0.010,0.930,11.740,2.120,1.370
63730015171,63730.015171,10.646303,0.550,0.020,0.940,12.020,1.970,1.480
63730021680,63730.021680,10.652812,0.560,0.000,0.950,11.660,1.950,1.390
63730028718,63730.028718,10.659850,0.570,0.010,0.940,11.800,2.180,1.440
63730035151,63730.035151,10.666283,0.560,0.010,0.950,11.910,2.060,1.480
63730041134,63730.041134,10.672266,0.560,0.010,0.940,11.860,2.000,1.300
63730047109,63730.047109,10.678241,0.570,0.010,0.940,11.860,1.890,1.390
63730053202,63730.053202,10.684334,0.560,0.000,0.940,11.690,2.030,1.250
63730062173,63730.062173,10.693305,0.560,0.020,0.940,11.950,2.060,1.250
63730068324,63730.068324,10.699456,0.560,0.010,0.940,11.740,2.180,1.310
63730075457,63730.075457,10.706589,0.560,0.010,0.960,11.910,2.060,1.360
63730083175,63730.083175,10.714307,0.560,0.010,0.950,11.890,2.060,1.400
63730089176,63730.089176,10.720308,0.560,0.010,0.930,12.270,2.060,1.390
63730096073,63730.096073,10.727205,0.560,-0.000,0.960,11.710,1.800,1.710
63730105195,63730.105195,10.736327,0.570,0.010,0.950,11.150,1.860,1.590
63730111176,63730.111176,10.742308,0.560,0.010,0.940,12.170,2.120,1.370
63730118171,63730.118171,10.749303,0.560,0.000,0.950,12.290,2.110,1.270
63730124464,63730.124464,10.755596,0.560,0.020,0.950,12.150,2.460,1.250
63730130199,63730.130199,10.761331,0.560,0.010,0.960,12.140,2.110,1.390
63730137277,63730.137277,10.768409,0.560,0.000,0.940,11.790,2.120,1.270
63730143139,63730.143139,10.774271,0.550,0.000,0.950,11.920,1.880,1.590
63730149157,63730.149157,10.780289,0.560,0.010,0.940,11.250,1.880,1.570
63730155154,63730.155154,10.786286,0.560,0.010,0.960,12.060,2.090,1.420
63730162271,63730.162271,10.793403,0.570,0.010,0.940,12.030,2.050,1.310
63730171171,63730.171171,10.802303,0.570,0.010,0.940,12.050,2.140,1.280
63730177134,63730.177134,10.808266,0.560,0.010,0.950,11.850,1.940,1.420
63730184296,63730.184296,10.815428,0.560,0.010,0.940,11.440,1.950,1.360
63730190177,63730.190177,10.821309,0.570,0.010,0.950,11.660,1.920,1.470
63730196204,63730.196204,10.827336,0.570,0.010,0.950,11.630,2.090,1.400
63730204620,63730.204620,10.835752,0.570,0.010,0.940,12.080,2.240,1.300
63730212090,63730.212090,10.843222,0.570,0.010,0.950,12.150,2.380,1.160
63730218341,63730.218341,10.849473,0.560,0.010,0.940,11.980,2.170,1.130
63730225972,63730.225972,10.857104,0.550,0.010,0.950,12.000,1.950,1.360
63730232173,63730.232173,10.863305,0.550,0.010,0.940,11.660,2.030,1.420
63730238138,63730.238138,10.869270,0.560,0.010,0.950,11.800,2.150,1.530
63730244342,63730.244342,10.875474,0.560,0.010,0.940,11.760,2.110,1.360
63730252163,63730.252163,10.883295,0.560,0.010,0.940,11.950,2.060,1.280
63730258108,63730.258108,10.889240,0.560,0.010,0.950,11.970,1.950,1.220
63730264108,63730.264108,10.895240,0.560,0.010,0.950,11.770,2.140,1.390
63730272712,63730.272712,10.903844,0.560,0.010,0.940,11.820,2.090,1.420
63730281169,63730.281169,10.912301,0.570,0.010,0.940,11.950,2.050,1.360
63730287158,63730.287158,10.918290,0.560,0.010,0.950,11.940,2.210,1.160
63730293170,63730.293170,10.924302,0.570,0.010,0.940,11.940,2.320,1.250
63730299407,63730.299407,10.930539,0.560,0.010,0.940,12.000,2.170,1.240
63730306242,63730.306242,10.937374,0.560,0.010,0.940,11.910,1.940,1.390
63730317961,63730.317961,10.949093,0.560,0.010,0.950,11.770,1.820,1.310
63730324172,63730.324172,10.955304,0.560,0.010,0.940,11.680,2.050,1.370
63730330205,63730.330205,10.961337,0.560,0.000,0.950,11.730,1.950,1.440
63730336166,63730.336166,10.967298,0.560,0.010,0.950,12.000,2.310,1.420
63730342185,63730.342185,10.973317,0.560,0.010,0.950,11.880,2.060,1.240
63730348470,63730.348470,10.979602,0.560,0.010,0.950,11.880,2.110,1.220
63730354153,63730.354153,10.985285,0.560,0.010,0.940,11.980,2.270,1.360
63730360466,63730.360466,10.991598,0.560,0.010,0.940,11.880,2.000,1.420
63730366147,63730.366147,10.997279,0.560,0.010,0.940,12.110,2.240,1.310
63730372112,63730.372112,11.003244,0.560,0.010,0.940,11.890,2.140,1.330
63730381778,63730.381778,11.012910,0.560,0.010,0.950,11.940,2.170,1.420
63730388161,63730.388161,11.019293,0.560,0.010,0.940,11.920,2.050,1.270
63730394171,63730.394171,11.025303,0.550,0.020,0.940,11.850,2.030,1.370
63730400193,63730.400193,11.031325,0.560,0.010,0.950,11.800,2.170,1.270
63730406584,63730.406584,11.037716,0.550,0.010,0.950,11.800,1.850,1.310
63730414155,63730.414155,11.045287,0.560,0.010,0.950,11.830,2.060,1.280
63730421170,63730.421170,11.052302,0.560,0.010,0.940,11.920,1.970,1.270
63730427319,63730.427319,11.058451,0.560,0.010,0.950,11.910,2.050,1.370
63730435161,63730.435161,11.066293,0.560,0.010,0.950,11.970,2.120,1.360
63730441111,63730.441111,11.072243,0.560,0.010,0.940,12.030,2.310,1.340
63730447120,63730.447120,11.078252,0.560,0.010,0.940,11.770,2.020,1.440
63730453162,63730.453162,11.084294,0.560,0.010,0.940,11.890,2.110,1.340
63730459138,63730.459138,11.090270,0.570,0.010,0.940,11.940,1.980,1.190
63730465595,63730.465595,11.096727,0.560,0.010,0.940,11.790,1.970,1.310
63730474197,63730.474197,11.105329,0.560,0.010,0.960,11.920,2.110,1.440
63730481168,63730.481168,11.112300,0.560,0.010,0.930,11.940,2.120,1.310
63730489136,63730.489136,11.120268,0.560,0.010,0.940,12.020,2.200,1.360
63730495151,63730.495151,11.126283,0.560,0.010,0.950,11.910,2.050,1.360
63730501677,63730.501677,11.132809,0.560,0.010,0.940,11.740,2.090,1.220
63730508674,63730.508674,11.139806,0.560,0.010,0.940,11.890,2.200,1.360
63730516028,63730.516028,11.147160,0.560,0.010,0.940,11.890,2.090,1.400
63730524037,63730.524037,11.155169,0.560,0.010,0.950,11.910,2.030,1.470
63730530201,63730.530201,11.161333,0.560,0.010,0.940,11.920,2.090,1.340
63730536152,63730.536152,11.167284,0.560,0.020,0.950,11.920,2.090,1.330
63730543166,63730.543166,11.174298,0.560,0.010,0.950,11.970,1.970,1.420
63730549620,63730.549620,11.180752,0.560,0.000,0.950,11.920,2.030,1.530
63730557322,63730.557322,11.188454,0.560,0.010,0.950,11.920,2.120,1.360
63730563177,63730.563177,11.194309,0.550,0.000,0.940,11.940,2.020,1.360
63730569192,63730.569192,11.200324,0.560,0.000,0.940,11.980,2.020,1.240
63730579172,63730.579172,11.210304,0.560,0.010,0.950,12.000,2.090,1.330
63730585160,63730.585160,11.216292,0.560,0.020,0.950,11.850,1.970,1.270
63730591167,63730.591167,11.222299,0.560,0.010,0.950,11.880,2.030,1.390
63730597195,63730.597195,11.228327,0.560,0.010,0.950,11.920,2.120,1.400
63730603177,63730.603177,11.234309,0.570,0.010,0.950,11.910,1.980,1.250
63730611331,63730.611331,11.242463,0.560,0.000,0.940,11.760,2.200,1.420
63730618519,63730.618519,11.249651,0.560,0.010,0.940,11.950,2.080,1.440
63730626187,63730.626187,11.257319,0.560,0.010,0.940,11.800,2.020,1.340
63730633161,63730.633161,11.264293,0.560,0.010,0.950,11.860,2.060,1.300
63730639150,63730.639150,11.270282,0.560,0.010,0.940,11.940,2.020,1.180
63730645121,63730.645121,11.276253,0.560,0.010,0.950,11.880,2.060,1.270
63730651156,63730.651156,11.282288,0.570,0.010,0.940,11.920,2.090,1.420
63730659192,63730.659192,11.290324,0.560,0.010,0.940,11.760,2.170,1.440
63730665133,63730.665133,11.296265,0.560,0.010,0.940,11.910,2.180,1.280
63730674349,63730.674349,11.305481,0.560,0.010,0.950,11.790,2.200,1.190
63730680291,63730.680291,11.311423,0.560,0.010,0.940,11.940,2.020,1.400
63730687161,63730.687161,11.318293,0.560,0.010,0.950,11.830,2.090,1.390
63730693161,63730.693161,11.324293,0.560,0.010,0.940,11.980,2.110,1.400
63730699586,63730.699586,11.330718,0.560,0.010,0.940,11.800,2.150,1.240
63730706595,63730.706595,11.337727,0.560,0.010,0.940,11.970,2.090,1.440
63730716774,63730.716774,11.347906,0.560,0.010,0.940,11.860,2.090,1.250
63730723163,63730.723163,11.354295,0.570,0.010,0.950,11.950,2.140,1.510
63730729233,63730.729233,11.360365,0.570,0.010,0.950,11.850,2.120,1.280
63730735207,63730.735207,11.366339,0.560,0.010,0.940,11.940,2.020,1.360
63730742345,63730.742345,11.373477,0.560,0.010,0.950,11.790,2.110,1.360
63730750161,63730.750161,11.381293,0.560,0.010,0.950,11.890,2.000,1.450
63730756135,63730.756135,11.387267,0.560,0.010,0.950,11.880,2.090,1.400
63730762130,63730.762130,11.393262,0.560,0.000,0.930,11.860,2.180,1.400
63730768113,63730.768113,11.399245,0.560,0.010,0.940,11.920,2.030,1.420
63730774269,63730.774269,11.405401,0.560,0.010,0.950,11.890,2.120,1.370
63730783176,63730.783176,11.414308,0.560,0.010,0.940,11.650,2.060,1.390
63730790178,63730.790178,11.421310,0.570,0.010,0.940,11.910,1.920,1.370
63730796169,63730.796169,11.427301,0.560,0.010,0.950,11.860,2.050,1.480
63730803152,63730.803152,11.434284,0.560,0.010,0.950,11.820,2.090,1.360
63730809792,63730.809792,11.440924,0.560,0.010,0.950,11.890,2.260,1.390
63730819219,63730.819219,11.450351,0.570,0.010,0.950,11.890,2.200,1.400
