t_us,t_s,t_rel,ax,ay,az,gx,gy,gz
8887042904,8887.042904,0.000000,0.300,0.290,1.040,11.540,1.510,1.180
8887051921,8887.051921,0.009017,0.300,0.280,1.030,11.480,1.560,1.340
8887061093,8887.061093,0.018189,0.300,0.290,1.030,11.570,1.560,1.420
8887066845,8887.066845,0.023941,0.300,0.290,1.030,11.440,1.660,1.250
8887073889,8887.073889,0.030985,0.300,0.280,1.040,11.510,1.590,1.180
8887083023,8887.083023,0.040119,0.300,0.290,1.030,11.480,1.570,1.300
8887088822,8887.088822,0.045918,0.300,0.280,1.040,11.540,1.420,1.360
8887094804,8887.094804,0.051900,0.300,0.290,1.030,11.480,1.570,1.180
8887103018,8887.103018,0.060114,0.300,0.290,1.030,11.480,1.630,1.390
8887109843,8887.109843,0.066939,0.300,0.280,1.030,11.510,1.530,1.310
8887144886,8887.144886,0.101982,0.300,0.290,1.030,11.500,1.630,1.470
8887150854,8887.150854,0.107950,0.300,0.290,1.030,11.570,1.510,1.340
8887159867,8887.159867,0.116963,0.300,0.290,1.030,11.450,1.530,1.150
8887166339,8887.166339,0.123435,0.300,0.290,1.040,11.440,1.540,1.330
8887173525,8887.173525,0.130621,0.310,0.290,1.040,11.560,1.630,1.240
8887179959,8887.179959,0.137055,0.300,0.300,1.030,11.680,1.730,1.010
8887185996,8887.185996,0.143092,0.310,0.290,1.030,11.370,1.680,1.220
8887191970,8887.191970,0.149066,0.300,0.280,1.040,11.370,1.600,1.220
8887197812,8887.197812,0.154908,0.300,0.280,1.030,11.470,1.630,1.190
8887203796,8887.203796,0.160892,0.300,0.290,1.040,11.390,1.600,1.450
8887209849,8887.209849,0.166945,0.300,0.290,1.030,11.470,1.510,1.300
8887215847,8887.215847,0.172943,0.300,0.290,1.040,11.570,1.570,1.270
8887268035,8887.268035,0.225131,0.300,0.290,1.030,11.440,1.600,1.240
8887273892,8887.273892,0.230988,0.300,0.290,1.030,11.450,1.630,1.270
8887279816,8887.279816,0.236912,0.300,0.280,1.040,11.440,1.570,1.190
8887285846,8887.285846,0.242942,0.300,0.290,1.030,11.630,1.450,1.440
8887306059,8887.306059,0.263155,0.290,0.290,1.030,11.600,1.600,1.240
8887311874,8887.311874,0.268970,0.310,0.280,1.030,11.630,1.630,1.510
8887318918,8887.318918,0.276014,0.300,0.290,1.040,11.620,1.660,1.390
8887325853,8887.325853,0.282949,0.300,0.290,1.040,11.540,1.500,1.360
8887331818,8887.331818,0.288914,0.300,0.280,1.030,11.480,1.570,1.250
8887337841,8887.337841,0.294937,0.300,0.290,1.030,11.540,1.540,1.280
8887343800,8887.343800,0.300896,0.300,0.290,1.030,11.480,1.740,1.220
8887349851,8887.349851,0.306947,0.300,0.290,1.030,11.470,1.470,1.180
8887361927,8887.361927,0.319023,0.300,0.290,1.030,11.420,1.510,1.240
8887369095,8887.369095,0.326191,0.300,0.290,1.030,11.470,1.530,1.390
8887377071,8887.377071,0.334167,0.300,0.290,1.040,11.470,1.730,1.370
8887384059,8887.384059,0.341155,0.310,0.290,1.030,11.540,1.570,1.220
8887389873,8887.389873,0.346969,0.290,0.290,1.030,11.500,1.500,1.310
8887396838,8887.396838,0.353934,0.310,0.290,1.050,11.620,1.480,1.310
8887404318,8887.404318,0.361414,0.300,0.290,1.030,11.450,1.680,1.130
8887410853,8887.410853,0.367949,0.300,0.280,1.040,11.630,1.570,1.220
8887416842,8887.416842,0.373938,0.300,0.290,1.040,11.570,1.480,1.240
8887422926,8887.422926,0.380022,0.300,0.290,1.040,11.530,1.710,1.340
8887428820,8887.428820,0.385916,0.300,0.280,1.030,11.710,1.620,1.400
8887435220,8887.435220,0.392316,0.300,0.290,1.040,11.600,1.680,1.160
8887442874,8887.442874,0.399970,0.310,0.290,1.040,11.510,1.500,1.310
8887448800,8887.448800,0.405896,0.300,0.290,1.040,11.510,1.620,1.400
8887464013,8887.464013,0.421109,0.310,0.290,1.030,11.560,1.650,1.440
8887470974,8887.470974,0.428070,0.300,0.280,1.040,11.600,1.690,1.270
8887476831,8887.476831,0.433927,0.300,0.290,1.030,11.510,1.450,1.270
8887483866,8887.483866,0.440962,0.300,0.290,1.040,11.500,1.530,1.360
8887489816,8887.489816,0.446912,0.300,0.290,1.030,11.500,1.560,1.250
8887496042,8887.496042,0.453138,0.300,0.280,1.030,11.390,1.620,1.370
8887546851,8887.546851,0.503947,0.310,0.290,1.040,11.470,1.690,1.150
8887559880,8887.559880,0.516976,0.310,0.280,1.030,11.440,1.560,1.240
8887565843,8887.565843,0.522939,0.300,0.280,1.030,11.590,1.590,1.390
8887571839,8887.571839,0.528935,0.310,0.290,1.040,11.470,1.660,1.400
8887578107,8887.578107,0.535203,0.300,0.290,1.040,11.470,1.530,1.300
8887583895,8887.583895,0.540991,0.310,0.290,1.030,11.570,1.660,1.280
8887590347,8887.590347,0.547443,0.300,0.280,1.040,11.400,1.650,1.420
8887596868,8887.596868,0.553964,0.300,0.290,1.030,11.500,1.600,1.300
8887602820,8887.602820,0.559916,0.300,0.280,1.030,11.620,1.650,1.310
8887608798,8887.608798,0.565894,0.300,0.280,1.030,11.470,1.680,1.440
8887664907,8887.664907,0.622003,0.300,0.290,1.030,11.480,1.570,1.420
8887672878,8887.672878,0.629974,0.300,0.290,1.040,11.600,1.630,1.400
8887679881,8887.679881,0.636977,0.310,0.280,1.030,11.440,1.600,1.240
8887688553,8887.688553,0.645649,0.300,0.290,1.030,11.450,1.570,1.280
8887694873,8887.694873,0.651969,0.300,0.290,1.030,11.500,1.510,1.280
8887701050,8887.701050,0.658146,0.300,0.290,1.040,11.500,1.510,1.180
8887706964,8887.706964,0.664060,0.300,0.290,1.040,11.530,1.510,1.310
8887713957,8887.713957,0.671053,0.300,0.290,1.030,11.570,1.530,1.180
8887720052,8887.720052,0.677148,0.300,0.290,1.030,11.470,1.560,1.190
8887725848,8887.725848,0.682944,0.300,0.290,1.030,11.530,1.420,1.450
8887731890,8887.731890,0.688986,0.300,0.290,1.040,11.630,1.540,1.310
8887737910,8887.737910,0.695006,0.300,0.290,1.020,11.630,1.620,1.340
8887744867,8887.744867,0.701963,0.310,0.290,1.030,11.530,1.760,1.390
8887754139,8887.754139,0.711235,0.300,0.290,1.040,11.530,1.390,1.310
8887761874,8887.761874,0.718970,0.300,0.280,1.040,11.530,1.740,1.250
8887767858,8887.767858,0.724954,0.300,0.290,1.030,11.390,1.730,1.240
8887773857,8887.773857,0.730953,0.300,0.280,1.030,11.630,1.570,1.360
8887780229,8887.780229,0.737325,0.300,0.290,1.030,11.400,1.540,1.340
8887786933,8887.786933,0.744029,0.300,0.290,1.040,11.420,1.510,1.280
8887796047,8887.796047,0.753143,0.310,0.280,1.030,11.390,1.390,1.330
8887801864,8887.801864,0.758960,0.300,0.280,1.030,11.420,1.690,1.280
8887807893,8887.807893,0.764989,0.310,0.280,1.040,11.530,1.690,1.500
8887814102,8887.814102,0.771198,0.300,0.290,1.040,11.560,1.560,1.360
8887820870,8887.820870,0.777966,0.310,0.290,1.030,11.480,1.530,1.360
8887827985,8887.827985,0.785081,0.300,0.280,1.040,11.510,1.600,1.500
8887834851,8887.834851,0.791947,0.300,0.280,1.040,11.510,1.620,1.330
8887840862,8887.840862,0.797958,0.310,0.280,1.030,11.370,1.710,1.370
8887846853,8887.846853,0.803949,0.310,0.280,1.040,11.420,1.360,1.270
8887853170,8887.853170,0.810266,0.300,0.290,1.030,11.420,1.600,1.240
8887859938,8887.859938,0.817034,0.300,0.290,1.030,11.570,1.530,1.110
8887866868,8887.866868,0.823964,0.300,0.290,1.030,11.660,1.690,1.280
8887874197,8887.874197,0.831293,0.300,0.290,1.040,11.590,1.680,1.270
8887880876,8887.880876,0.837972,0.300,0.290,1.040,11.500,1.540,1.270
8887887066,8887.887066,0.844162,0.300,0.290,1.030,11.560,1.340,1.330
8887894361,8887.894361,0.851457,0.300,0.290,1.040,11.440,1.440,1.220
8887901225,8887.901225,0.858321,0.300,0.280,1.040,11.530,1.760,1.250
8887908967,8887.908967,0.866063,0.300,0.280,1.030,11.570,1.590,1.280
8887915845,8887.915845,0.872941,0.310,0.290,1.030,11.530,1.540,1.310
8887921826,8887.921826,0.878922,0.300,0.290,1.040,11.560,1.510,1.370
8887929364,8887.929364,0.886460,0.300,0.280,1.030,11.620,1.630,1.280
8887936062,8887.936062,0.893158,0.310,0.290,1.040,11.540,1.660,1.240
8887942841,8887.942841,0.899937,0.300,0.290,1.030,11.400,1.420,1.330
8887948859,8887.948859,0.905955,0.300,0.290,1.050,11.420,1.450,1.330
8887958507,8887.958507,0.915603,0.300,0.280,1.040,11.470,1.680,1.420
8887964852,8887.964852,0.921948,0.300,0.280,1.030,11.450,1.560,1.450
8887970865,8887.970865,0.927961,0.300,0.280,1.030,11.370,1.730,1.110
8887976848,8887.976848,0.933944,0.310,0.280,1.030,11.270,1.690,1.180
8887982869,8887.982869,0.939965,0.300,0.290,1.030,11.600,1.620,1.480
8887989756,8887.989756,0.946852,0.310,0.290,1.040,11.510,1.650,1.370
8887995885,8887.995885,0.952981,0.300,0.280,1.030,11.450,1.560,1.280
8888004028,8888.004028,0.961124,0.300,0.280,1.040,11.470,1.450,1.370
8888010859,8888.010859,0.967955,0.300,0.280,1.030,11.530,1.620,1.370
8888017559,8888.017559,0.974655,0.300,0.290,1.030,11.470,1.540,1.310
8888023832,8888.023832,0.980928,0.300,0.280,1.040,11.480,1.650,1.210
8888030314,8888.030314,0.987410,0.300,0.290,1.030,11.540,1.630,1.420
8888038059,8888.038059,0.995155,0.300,0.280,1.030,11.540,1.510,1.360
8888043819,8888.043819,1.000915,0.300,0.280,1.040,11.420,1.560,1.280
8888049864,8888.049864,1.006960,0.300,0.280,1.040,11.390,1.500,1.110
8888055859,8888.055859,1.012955,0.300,0.280,1.040,11.440,1.560,1.330
8888061847,8888.061847,1.018943,0.300,0.280,1.030,11.570,1.630,1.330
8888068851,8888.068851,1.025947,0.300,0.280,1.040,11.420,1.590,1.190
8888075958,8888.075958,1.033054,0.300,0.290,1.030,11.420,1.600,1.310
8888081865,8888.081865,1.038961,0.300,0.280,1.020,11.330,1.590,1.220
8888087877,8888.087877,1.044973,0.300,0.280,1.030,11.390,1.730,1.340
8888093952,8888.093952,1.051048,0.290,0.290,1.040,11.620,1.590,1.190
8888099862,8888.099862,1.056958,0.300,0.290,1.040,11.420,1.500,1.190
8888107897,8888.107897,1.064993,0.300,0.290,1.040,11.620,1.660,1.300
8888114864,8888.114864,1.071960,0.310,0.290,1.040,11.540,1.570,1.190
8888122328,8888.122328,1.079424,0.300,0.290,1.040,11.600,1.710,1.360
8888128862,8888.128862,1.085958,0.300,0.290,1.040,11.590,1.420,1.400
8888134846,8888.134846,1.091942,0.310,0.290,1.030,11.400,1.450,1.210
8888140848,8888.140848,1.097944,0.300,0.280,1.040,11.600,1.530,1.220
8888146859,8888.146859,1.103955,0.300,0.290,1.040,11.480,1.600,1.300
8888154081,8888.154081,1.111177,0.300,0.290,1.030,11.480,1.470,1.330
8888162906,8888.162906,1.120002,0.300,0.290,1.030,11.500,1.510,1.310
8888169854,8888.169854,1.126950,0.300,0.290,1.040,11.280,1.560,1.280
8888175983,8888.175983,1.133079,0.300,0.290,1.030,11.530,1.570,1.400
8888181941,8888.181941,1.139037,0.310,0.290,1.030,11.510,1.600,1.240
8888188155,8888.188155,1.145251,0.300,0.290,1.040,11.480,1.620,1.370
8888195593,8888.195593,1.152689,0.300,0.290,1.040,11.360,1.660,1.270
8888202877,8888.202877,1.159973,0.300,0.280,1.040,11.690,1.630,1.240
8888208877,8888.208877,1.165973,0.300,0.290,1.030,11.660,1.560,1.330
8888215955,8888.215955,1.173051,0.300,0.290,1.040,11.570,1.650,1.390
8888223404,8888.223404,1.180500,0.300,0.290,1.030,11.400,1.510,1.250
8888229863,8888.229863,1.186959,0.290,0.290,1.030,11.480,1.690,1.240
8888236609,8888.236609,1.193705,0.300,0.290,1.030,11.620,1.680,1.240
8888242838,8888.242838,1.199934,0.300,0.290,1.020,11.480,1.510,1.400
8888249325,8888.249325,1.206421,0.310,0.290,1.030,11.620,1.600,1.360
8888257723,8888.257723,1.214819,0.310,0.280,1.040,11.420,1.570,1.340
8888263833,8888.263833,1.220929,0.300,0.290,1.040,11.400,1.530,1.240
8888270199,8888.270199,1.227295,0.300,0.290,1.030,11.400,1.560,1.400
8888278861,8888.278861,1.235957,0.310,0.280,1.030,11.590,1.800,1.300
8888284847,8888.284847,1.241943,0.300,0.290,1.030,11.510,1.620,1.330
8888290867,8888.290867,1.247963,0.300,0.280,1.030,11.570,1.740,1.220
8888297775,8888.297775,1.254871,0.300,0.290,1.030,11.400,1.620,1.270
8888303887,8888.303887,1.260983,0.300,0.280,1.030,11.630,1.510,1.220
8888312069,8888.312069,1.269165,0.300,0.290,1.030,11.510,1.630,1.420
8888318845,8888.318845,1.275941,0.300,0.280,1.030,11.620,1.620,1.150
8888324819,8888.324819,1.281915,0.300,0.290,1.030,11.570,1.500,1.250
8888330797,8888.330797,1.287893,0.300,0.290,1.030,11.440,1.440,1.270
8888336808,8888.336808,1.293904,0.310,0.290,1.030,11.590,1.560,1.370
8888342811,8888.342811,1.299907,0.300,0.290,1.030,11.530,1.600,1.330
8888348823,8888.348823,1.305919,0.310,0.290,1.040,11.510,1.710,1.400
8888354802,8888.354802,1.311898,0.300,0.290,1.040,11.600,1.760,1.310
8888372874,8888.372874,1.329970,0.300,0.290,1.040,11.440,1.440,1.190
8888378969,8888.378969,1.336065,0.300,0.280,1.030,11.560,1.650,1.480
8888384862,8888.384862,1.341958,0.310,0.280,1.030,11.470,1.500,1.300
8888390970,8888.390970,1.348066,0.300,0.290,1.040,11.420,1.570,1.270
8888398580,8888.398580,1.355676,0.300,0.290,1.040,11.450,1.690,1.280
8888404924,8888.404924,1.362020,0.300,0.290,1.030,11.690,1.540,1.190
8888411766,8888.411766,1.368862,0.300,0.290,1.040,11.620,1.530,1.130
8888417977,8888.417977,1.375073,0.300,0.280,1.030,11.480,1.630,1.270
8888424880,8888.424880,1.381976,0.300,0.280,1.040,11.560,1.570,1.270
8888430995,8888.430995,1.388091,0.300,0.290,1.030,11.630,1.590,1.330
8888436844,8888.436844,1.393940,0.300,0.290,1.030,11.440,1.540,1.330
8888442917,8888.442917,1.400013,0.310,0.280,1.030,11.470,1.620,1.480
8888450960,8888.450960,1.408056,0.300,0.290,1.030,11.390,1.730,1.450
8888456847,8888.456847,1.413943,0.300,0.290,1.040,11.600,1.630,1.310
8888462833,8888.462833,1.419929,0.300,0.290,1.030,11.600,1.600,1.330
8888468797,8888.468797,1.425893,0.300,0.290,1.040,11.680,1.660,1.390
8888474809,8888.474809,1.431905,0.300,0.290,1.040,11.400,1.590,1.440
8888480817,8888.480817,1.437913,0.300,0.280,1.040,11.620,1.600,1.280
8888500887,8888.500887,1.457983,0.300,0.290,1.040,11.570,1.500,1.250
8888506883,8888.506883,1.463979,0.300,0.290,1.040,11.390,1.540,1.370
8888513879,8888.513879,1.470975,0.300,0.290,1.030,11.600,1.660,1.180
8888519954,8888.519954,1.477050,0.300,0.290,1.030,11.390,1.650,1.280
8888526969,8888.526969,1.484065,0.300,0.280,1.030,11.560,1.480,1.240
8888534022,8888.534022,1.491118,0.300,0.290,1.030,11.420,1.420,1.160
8888539840,8888.539840,1.496936,0.300,0.290,1.030,11.450,1.600,1.300
8888547869,8888.547869,1.504965,0.300,0.280,1.040,11.530,1.510,1.330
8888553805,8888.553805,1.510901,0.310,0.280,1.040,11.390,1.400,1.440
8888559961,8888.559961,1.517057,0.300,0.280,1.030,11.450,1.620,1.280
8888567658,8888.567658,1.524754,0.300,0.290,1.030,11.560,1.560,1.360
8888574148,8888.574148,1.531244,0.300,0.290,1.040,11.470,1.540,1.310
8888581055,8888.581055,1.538151,0.300,0.290,1.030,11.590,1.680,1.420
8888588876,8888.588876,1.545972,0.300,0.290,1.030,11.540,1.560,1.500
8888596886,8888.596886,1.553982,0.300,0.280,1.030,11.540,1.620,1.370
8888603852,8888.603852,1.560948,0.310,0.290,1.030,11.480,1.530,1.250
8888610126,8888.610126,1.567222,0.300,0.290,1.020,11.630,1.760,1.310
8888617554,8888.617554,1.574650,0.300,0.290,1.030,11.450,1.480,1.330
8888623841,8888.623841,1.580937,0.300,0.280,1.030,11.680,1.530,1.330
8888629927,8888.629927,1.587023,0.300,0.290,1.040,11.680,1.540,1.360
8888635833,8888.635833,1.592929,0.300,0.280,1.030,11.530,1.730,1.360
8888641793,8888.641793,1.598889,0.300,0.280,1.030,11.540,1.590,1.370
8888647796,8888.647796,1.604892,0.300,0.290,1.030,11.470,1.600,1.240
8888653794,8888.653794,1.610890,0.300,0.290,1.030,11.440,1.620,1.340
8888672885,8888.672885,1.629981,0.300,0.290,1.030,11.400,1.660,1.330
8888678864,8888.678864,1.635960,0.300,0.290,1.020,11.330,1.710,1.310
8888684871,8888.684871,1.641967,0.300,0.290,1.020,11.590,1.600,1.220
8888690866,8888.690866,1.647962,0.300,0.290,1.030,11.570,1.560,1.280
8888696849,8888.696849,1.653945,0.310,0.290,1.030,11.600,1.790,1.150
8888705686,8888.705686,1.662782,0.300,0.290,1.030,11.440,1.680,1.180
8888711889,8888.711889,1.668985,0.300,0.280,1.040,11.590,1.570,1.210
8888719944,8888.719944,1.677040,0.300,0.290,1.030,11.660,1.540,1.340
8888726910,8888.726910,1.684006,0.300,0.290,1.030,11.500,1.600,1.160
8888734542,8888.734542,1.691638,0.300,0.290,1.040,11.680,1.660,1.330
8888740858,8888.740858,1.697954,0.300,0.290,1.040,11.500,1.360,1.280
8888747292,8888.747292,1.704388,0.300,0.280,1.040,11.480,1.660,1.540
8888752850,8888.752850,1.709946,0.300,0.290,1.030,11.590,1.600,1.270
8888758805,8888.758805,1.715901,0.300,0.290,1.040,11.540,1.510,1.070
8888765811,8888.765811,1.722907,0.300,0.290,1.040,11.650,1.440,1.370
8888771905,8888.771905,1.729001,0.300,0.290,1.030,11.510,1.630,1.250
8888780860,8888.780860,1.737956,0.300,0.290,1.030,11.590,1.530,1.310
8888786845,8888.786845,1.743941,0.310,0.290,1.030,11.590,1.590,1.310
8888792855,8888.792855,1.749951,0.300,0.290,1.030,11.690,1.560,1.210
8888798857,8888.798857,1.755953,0.310,0.290,1.040,11.630,1.600,1.280
8888805122,8888.805122,1.762218,0.300,0.290,1.030,11.300,1.370,1.370
8888811915,8888.811915,1.769011,0.300,0.290,1.030,11.590,1.500,1.330
8888817802,8888.817802,1.774898,0.300,0.290,1.030,11.660,1.600,1.370
8888823845,8888.823845,1.780941,0.300,0.280,1.030,11.480,1.590,1.340
8888829837,8888.829837,1.786933,0.290,0.280,1.040,11.530,1.730,1.330
8888835809,8888.835809,1.792905,0.300,0.280,1.030,11.570,1.770,1.420
8888841797,8888.841797,1.798893,0.300,0.290,1.020,11.420,1.660,1.310
8888847954,8888.847954,1.805050,0.300,0.280,1.030,11.510,1.620,1.330
8888853808,8888.853808,1.810904,0.300,0.290,1.040,11.530,1.690,1.310
8888876873,8888.876873,1.833969,0.300,0.290,1.040,11.300,1.600,1.340
8888883026,8888.883026,1.840122,0.300,0.290,1.030,11.480,1.620,1.340
8888889880,8888.889880,1.846976,0.300,0.290,1.040,11.560,1.510,1.330
8888896387,8888.896387,1.853483,0.300,0.290,1.030,11.450,1.790,1.250
8888902900,8888.902900,1.859996,0.300,0.280,1.030,11.560,1.590,1.300
8888910551,8888.910551,1.867647,0.300,0.290,1.030,11.540,1.540,1.330
8888917727,8888.917727,1.874823,0.310,0.280,1.040,11.420,1.510,1.340
8888924875,8888.924875,1.881971,0.310,0.280,1.040,11.450,1.660,1.480
8888930859,8888.930859,1.887955,0.300,0.290,1.030,11.570,1.570,1.390
8888938489,8888.938489,1.895585,0.310,0.280,1.030,11.360,1.680,1.220
8888944981,8888.944981,1.902077,0.300,0.280,1.020,11.470,1.560,1.300
8888950837,8888.950837,1.907933,0.300,0.280,1.040,11.470,1.560,1.180
8888958868,8888.958868,1.915964,0.300,0.290,1.040,11.500,1.500,1.370
8888964805,8888.964805,1.921901,0.310,0.280,1.030,11.370,1.680,1.400
8888971893,8888.971893,1.928989,0.300,0.290,1.040,11.600,1.590,1.310
8888977838,8888.977838,1.934934,0.310,0.290,1.030,11.590,1.630,1.400
8888987294,8888.987294,1.944390,0.300,0.290,1.030,11.540,1.570,1.390
8888994399,8888.994399,1.951495,0.300,0.290,1.030,11.340,1.620,1.500
8889000870,8889.000870,1.957966,0.300,0.280,1.030,11.480,1.740,1.300
8889006870,8889.006870,1.963966,0.300,0.280,1.030,11.690,1.650,1.340
8889012903,8889.012903,1.969999,0.300,0.290,1.030,11.590,1.600,1.360
8889020043,8889.020043,1.977139,0.300,0.290,1.040,11.540,1.630,1.330
8889026871,8889.026871,1.983967,0.310,0.290,1.040,11.500,1.560,1.240
8889033833,8889.033833,1.990929,0.300,0.280,1.040,11.450,1.470,1.330
8889039851,8889.039851,1.996947,0.300,0.290,1.030,11.450,1.630,1.150
8889048035,8889.048035,2.005131,0.300,0.290,1.040,11.650,1.530,1.340
8889054855,8889.054855,2.011951,0.300,0.290,1.030,11.400,1.600,1.400
8889060804,8889.060804,2.017900,0.310,0.290,1.030,11.440,1.650,1.340
8889066804,8889.066804,2.023900,0.300,0.290,1.030,11.530,1.600,1.210
8889073092,8889.073092,2.030188,0.300,0.280,1.030,11.620,1.600,1.190
8889080979,8889.080979,2.038075,0.300,0.290,1.040,11.440,1.400,1.210
8889090874,8889.090874,2.047970,0.300,0.290,1.030,11.530,1.560,1.300
8889096958,8889.096958,2.054054,0.300,0.290,1.030,11.570,1.660,1.250
8889103024,8889.103024,2.060120,0.300,0.290,1.030,11.600,1.620,1.390
8889109877,8889.109877,2.066973,0.300,0.280,1.030,11.470,1.510,1.330
8889117594,8889.117594,2.074690,0.300,0.290,1.030,11.470,1.470,1.180
8889126373,8889.126373,2.083469,0.300,0.290,1.030,11.470,1.540,1.400
8889133181,8889.133181,2.090277,0.300,0.290,1.040,11.530,1.560,1.300
8889138864,8889.138864,2.095960,0.300,0.290,1.040,11.450,1.480,1.270
8889146861,8889.146861,2.103957,0.300,0.290,1.030,11.390,1.660,1.280
8889152875,8889.152875,2.109971,0.300,0.290,1.040,11.310,1.570,1.280
8889158873,8889.158873,2.115969,0.300,0.280,1.040,11.630,1.560,1.340
8889165850,8889.165850,2.122946,0.310,0.290,1.040,11.400,1.760,1.280
8889171980,8889.171980,2.129076,0.300,0.290,1.040,11.540,1.370,1.310
8889177796,8889.177796,2.134892,0.300,0.290,1.040,11.500,1.570,1.360
8889185500,8889.185500,2.142596,0.300,0.290,1.040,11.560,1.570,1.190
8889192866,8889.192866,2.149962,0.310,0.290,1.030,11.570,1.530,1.360
8889198857,8889.198857,2.155953,0.300,0.290,1.040,11.500,1.590,1.270
8889204974,8889.204974,2.162070,0.300,0.280,1.030,11.390,1.680,1.190
8889211163,8889.211163,2.168259,0.300,0.290,1.040,11.340,1.800,1.280
8889217915,8889.217915,2.175011,0.300,0.290,1.040,11.540,1.620,1.310
8889225911,8889.225911,2.183007,0.300,0.290,1.040,11.600,1.680,1.280
8889231873,8889.231873,2.188969,0.300,0.290,1.040,11.590,1.650,1.360
8889237843,8889.237843,2.194939,0.300,0.290,1.030,11.340,1.650,1.250
8889243810,8889.243810,2.200906,0.300,0.280,1.030,11.470,1.690,1.220
8889249808,8889.249808,2.206904,0.300,0.280,1.030,11.500,1.440,1.340
8889255804,8889.255804,2.212900,0.300,0.290,1.030,11.500,1.630,1.280
8889261902,8889.261902,2.218998,0.300,0.290,1.040,11.450,1.540,1.440
8889280542,8889.280542,2.237638,0.300,0.290,1.030,11.570,1.390,1.270
8889286863,8889.286863,2.243959,0.300,0.290,1.040,11.570,1.690,1.440
8889293121,8889.293121,2.250217,0.300,0.290,1.040,11.530,1.620,1.190
8889299858,8889.299858,2.256954,0.300,0.290,1.040,11.450,1.660,1.150
8889305854,8889.305854,2.262950,0.300,0.290,1.040,11.560,1.470,1.250
8889312922,8889.312922,2.270018,0.300,0.290,1.030,11.570,1.710,1.150
8889321012,8889.321012,2.278108,0.310,0.290,1.040,11.420,1.660,1.390
8889326884,8889.326884,2.283980,0.290,0.290,1.030,11.560,1.420,1.310
8889332872,8889.332872,2.289968,0.300,0.290,1.030,11.590,1.440,1.310
8889338842,8889.338842,2.295938,0.310,0.280,1.030,11.530,1.630,1.400
8889344859,8889.344859,2.301955,0.300,0.290,1.030,11.450,1.600,1.360
8889350810,8889.350810,2.307906,0.300,0.290,1.030,11.440,1.770,1.250
8889356802,8889.356802,2.313898,0.300,0.280,1.040,11.530,1.510,1.390
8889367842,8889.367842,2.324938,0.300,0.290,1.050,11.500,1.590,1.270
8889515018,8889.515018,2.472114,0.300,0.290,1.040,11.470,1.450,1.370
8889522145,8889.522145,2.479241,0.300,0.280,1.030,11.560,1.790,1.300
8889528023,8889.528023,2.485119,0.300,0.290,1.040,11.660,1.690,1.250
8889534969,8889.534969,2.492065,0.300,0.290,1.020,11.400,1.500,1.280
8889541851,8889.541851,2.498947,0.310,0.290,1.040,11.530,1.710,1.300
8889548868,8889.548868,2.505964,0.300,0.280,1.030,11.340,1.770,1.250
8889555789,8889.555789,2.512885,0.300,0.290,1.030,11.500,1.590,1.330
8889561832,8889.561832,2.518928,0.300,0.280,1.030,11.590,1.590,1.280
8889569870,8889.569870,2.526966,0.310,0.290,1.040,11.540,1.530,1.220
8889576103,8889.576103,2.533199,0.300,0.290,1.040,11.570,1.590,1.280
8889581836,8889.581836,2.538932,0.300,0.290,1.030,11.530,1.660,1.400
8889587800,8889.587800,2.544896,0.300,0.290,1.040,11.620,1.650,1.440
8889595422,8889.595422,2.552518,0.300,0.290,1.030,11.390,1.710,1.310
8889601857,8889.601857,2.558953,0.290,0.290,1.030,11.560,1.740,1.440
8889607857,8889.607857,2.564953,0.300,0.290,1.030,11.560,1.420,1.300
8889613864,8889.613864,2.570960,0.300,0.290,1.030,11.470,1.560,1.190
8889619867,8889.619867,2.576963,0.300,0.290,1.030,11.400,1.530,1.250
8889628083,8889.628083,2.585179,0.310,0.290,1.040,11.500,1.590,1.370
8889635871,8889.635871,2.592967,0.300,0.290,1.030,11.450,1.560,1.040
8889642379,8889.642379,2.599475,0.300,0.290,1.030,11.440,1.690,1.370
8889648867,8889.648867,2.605963,0.300,0.290,1.030,11.570,1.400,1.360
8889654851,8889.654851,2.611947,0.300,0.280,1.030,11.420,1.680,1.340
8889660853,8889.660853,2.617949,0.300,0.280,1.030,11.390,1.630,1.310
8889666818,8889.666818,2.623914,0.300,0.290,1.040,11.440,1.500,1.270
8889672842,8889.672842,2.629938,0.300,0.290,1.040,11.500,1.480,1.360
8889678826,8889.678826,2.635922,0.310,0.280,1.040,11.540,1.690,1.420
8889697869,8889.697869,2.654965,0.300,0.280,1.030,11.360,1.560,1.180
8889703932,8889.703932,2.661028,0.310,0.280,1.030,11.590,1.570,1.150
8889711165,8889.711165,2.668261,0.300,0.290,1.030,11.570,1.570,1.220
8889716957,8889.716957,2.674053,0.300,0.290,1.030,11.560,1.530,1.270
8889723879,8889.723879,2.680975,0.300,0.290,1.030,11.540,1.740,1.310
8889732734,8889.732734,2.689830,0.300,0.290,1.030,11.450,1.390,1.390
8889739040,8889.739040,2.696136,0.300,0.280,1.020,11.480,1.680,1.220
8889746867,8889.746867,2.703963,0.300,0.290,1.030,11.480,1.590,1.240
8889753890,8889.753890,2.710986,0.310,0.280,1.030,11.540,1.470,1.330
8889760285,8889.760285,2.717381,0.300,0.280,1.040,11.620,1.560,1.400
8889766864,8889.766864,2.723960,0.300,0.290,1.030,11.420,1.690,1.330
8889774070,8889.774070,2.731166,0.310,0.290,1.030,11.540,1.590,1.390
8889780838,8889.780838,2.737934,0.300,0.290,1.040,11.530,1.680,1.400
8889787168,8889.787168,2.744264,0.300,0.290,1.040,11.650,1.660,1.250
8889795027,8889.795027,2.752123,0.300,0.290,1.030,11.440,1.590,1.250
8889803160,8889.803160,2.760256,0.300,0.290,1.030,11.400,1.540,1.270
8889809866,8889.809866,2.766962,0.300,0.280,1.030,11.510,1.570,1.130
8889815870,8889.815870,2.772966,0.300,0.290,1.040,11.440,1.620,1.300
8889821858,8889.821858,2.778954,0.300,0.290,1.040,11.530,1.660,1.240
8889829576,8889.829576,2.786672,0.300,0.290,1.030,11.650,1.530,1.470
8889836896,8889.836896,2.793992,0.300,0.280,1.040,11.500,1.650,1.280
8889843861,8889.843861,2.800957,0.300,0.290,1.030,11.420,1.390,1.250
8889849876,8889.849876,2.806972,0.300,0.280,1.040,11.390,1.510,1.250
8889857245,8889.857245,2.814341,0.300,0.290,1.030,11.530,1.680,1.220
8889864097,8889.864097,2.821193,0.300,0.290,1.040,11.390,1.480,1.370
8889871142,8889.871142,2.828238,0.300,0.280,1.030,11.450,1.510,1.340
8889876860,8889.876860,2.833956,0.300,0.280,1.030,11.480,1.690,1.330
8889882828,8889.882828,2.839924,0.300,0.280,1.040,11.540,1.500,1.390
8889888792,8889.888792,2.845888,0.300,0.290,1.030,11.540,1.440,1.210
8889894803,8889.894803,2.851899,0.300,0.290,1.030,11.570,1.570,1.190
8889900849,8889.900849,2.857945,0.300,0.290,1.040,11.330,1.650,1.390
8889909873,8889.909873,2.866969,0.300,0.290,1.050,11.450,1.510,1.310
8889915846,8889.915846,2.872942,0.290,0.280,1.030,11.570,1.540,1.250
8889922701,8889.922701,2.879797,0.300,0.290,1.040,11.540,1.570,1.400
8889928874,8889.928874,2.885970,0.300,0.290,1.030,11.440,1.480,1.270
8889936268,8889.936268,2.893364,0.300,0.290,1.030,11.390,1.440,1.330
8889943691,8889.943691,2.900787,0.310,0.290,1.030,11.480,1.400,1.360
8889951906,8889.951906,2.909002,0.300,0.290,1.040,11.690,1.630,1.390
8889957858,8889.957858,2.914954,0.300,0.280,1.030,11.590,1.530,1.390
8889963869,8889.963869,2.920965,0.300,0.280,1.030,11.450,1.650,1.360
8889970870,8889.970870,2.927966,0.300,0.290,1.040,11.660,1.570,1.300
8889976864,8889.976864,2.933960,0.290,0.290,1.030,11.360,1.270,1.450
8889983925,8889.983925,2.941021,0.300,0.280,1.040,11.500,1.480,1.390
8889990263,8889.990263,2.947359,0.290,0.300,1.020,11.450,1.710,1.400
8889996876,8889.996876,2.953972,0.300,0.280,1.030,11.830,1.540,1.070
8890002837,8890.002837,2.959933,0.300,0.290,1.040,11.850,1.590,1.310
8890009092,8890.009092,2.966188,0.300,0.280,1.030,11.250,1.630,1.530
8890014843,8890.014843,2.971939,0.300,0.280,1.040,11.500,1.630,1.450
8890020860,8890.020860,2.977956,0.310,0.290,1.040,11.480,1.530,1.300
8890032169,8890.032169,2.989265,0.300,0.250,1.040,11.280,1.650,1.850
8890038907,8890.038907,2.996003,0.270,0.260,1.020,11.710,1.480,1.390
8890045861,8890.045861,3.002957,0.280,0.290,1.020,11.130,1.500,1.370
8890051868,8890.051868,3.008964,0.290,0.290,1.040,11.500,1.300,1.440
8890058915,8890.058915,3.016011,0.300,0.290,1.030,11.400,1.530,1.540
8890067873,8890.067873,3.024969,0.300,0.280,1.040,11.340,1.680,1.450
8890073834,8890.073834,3.030930,0.300,0.280,1.030,11.800,1.590,1.160
8890079826,8890.079826,3.036922,0.300,0.290,1.030,11.540,1.510,1.240
8890085808,8890.085808,3.042904,0.300,0.290,1.040,11.450,1.660,1.250
8890091825,8890.091825,3.048921,0.300,0.290,1.040,11.770,1.390,1.130
8890097826,8890.097826,3.054922,0.300,0.290,1.030,11.360,1.590,1.400
8890104205,8890.104205,3.061301,0.300,0.290,1.030,11.100,1.370,1.370
8890113292,8890.113292,3.070388,0.290,0.290,1.040,11.630,1.480,1.270
8890119855,8890.119855,3.076951,0.310,0.290,1.030,11.480,1.560,1.250
8890126565,8890.126565,3.083661,0.300,0.290,1.030,11.420,1.560,1.370
8890132877,8890.132877,3.089973,0.310,0.290,1.040,11.560,1.590,1.330
8890139707,8890.139707,3.096803,0.310,0.290,1.030,11.560,1.560,1.240
8890145969,8890.145969,3.103065,0.300,0.290,1.030,11.480,1.560,1.390
8890152889,8890.152889,3.109985,0.300,0.290,1.030,11.400,1.600,1.210
8890158812,8890.158812,3.115908,0.300,0.280,1.030,11.510,1.620,1.240
8890164797,8890.164797,3.121893,0.300,0.290,1.040,11.470,1.660,1.440
8890170894,8890.170894,3.127990,0.300,0.280,1.040,11.530,1.560,1.300
8890179761,8890.179761,3.136857,0.310,0.290,1.030,11.340,1.690,1.330
8890185859,8890.185859,3.142955,0.300,0.290,1.040,11.420,1.690,1.370
8890191912,8890.191912,3.149008,0.300,0.290,1.020,11.570,1.530,1.330
8890198147,8890.198147,3.155243,0.300,0.290,1.030,11.440,1.600,1.330
8890204977,8890.204977,3.162073,0.300,0.280,1.030,11.660,1.680,1.500
8890211422,8890.211422,3.168518,0.300,0.290,1.020,11.370,1.660,1.300
8890220075,8890.220075,3.177171,0.300,0.290,1.040,11.500,1.480,1.190
8890225869,8890.225869,3.182965,0.300,0.290,1.040,11.760,1.570,1.300
8890232864,8890.232864,3.189960,0.290,0.280,1.030,10.410,1.480,1.820
8890239850,8890.239850,3.196946,0.300,0.220,1.030,9.330,1.300,3.970
8890247561,8890.247561,3.204657,0.290,0.250,0.980,9.790,1.370,3.080
8890254913,8890.254913,3.212009,0.300,0.250,1.020,12.820,1.310,1.370
8890261857,8890.261857,3.218953,0.300,0.280,1.020,13.570,1.370,-0.260
8890269344,8890.269344,3.226440,0.310,0.300,1.050,14.150,1.310,-0.340
8890275832,8890.275832,3.232928,0.300,0.330,1.040,9.310,1.400,2.230
8890281829,8890.281829,3.238925,0.290,0.260,1.030,10.410,1.770,2.340
8890287809,8890.287809,3.244905,0.310,0.280,1.030,10.870,1.790,2.120
8890293821,8890.293821,3.250917,0.290,0.280,1.030,10.890,1.690,1.480
8890299831,8890.299831,3.256927,0.310,0.290,1.030,10.870,1.540,1.740
8890308853,8890.308853,3.265949,0.300,0.280,1.040,11.020,1.690,1.710
8890335886,8890.335886,3.292982,0.310,0.270,1.050,16.060,1.280,-1.570
8890342877,8890.342877,3.299973,0.290,0.340,1.040,14.180,0.610,0.640
8890349886,8890.349886,3.306982,0.280,0.270,1.030,8.780,1.530,2.110
8890355863,8890.355863,3.312959,0.300,0.280,1.040,14.760,0.640,-2.050
8890361926,8890.361926,3.319022,0.320,0.350,1.030,11.800,0.340,-1.190
8890369879,8890.369879,3.326975,0.290,0.300,1.020,10.560,-0.850,-3.020
8890376962,8890.376962,3.334058,0.340,0.200,1.090,15.660,1.680,-0.640
8890382866,8890.382866,3.339962,0.320,0.320,1.050,10.600,1.530,1.080
8890389844,8890.389844,3.346940,0.300,0.270,1.040,11.820,1.910,0.930
8890395806,8890.395806,3.352902,0.310,0.300,1.020,11.710,1.630,1.300
8890401991,8890.401991,3.359087,0.310,0.280,1.040,11.020,1.560,2.050
8890407797,8890.407797,3.364893,0.300,0.290,1.040,11.940,1.630,1.300
8890427860,8890.427860,3.384956,0.300,0.310,1.040,10.520,1.880,1.940
8890433849,8890.433849,3.390945,0.310,0.280,1.040,10.840,1.830,1.330
8890440075,8890.440075,3.397171,0.290,0.270,1.040,12.400,1.590,0.780
8890445841,8890.445841,3.402937,0.300,0.300,1.030,11.360,1.540,1.510
8890453707,8890.453707,3.410803,0.300,0.290,1.040,11.100,1.760,1.600
8890461879,8890.461879,3.418975,0.300,0.290,1.030,11.880,1.630,1.180
8890467864,8890.467864,3.424960,0.300,0.290,1.030,11.160,1.800,1.360
8890473850,8890.473850,3.430946,0.290,0.280,1.030,11.730,1.570,1.100
8890481871,8890.481871,3.438967,0.310,0.300,1.040,10.950,1.540,1.560
8890489093,8890.489093,3.446189,0.310,0.290,1.040,11.050,1.800,0.920
8890495841,8890.495841,3.452937,0.310,0.290,1.040,11.270,1.660,1.850
8890501838,8890.501838,3.458934,0.300,0.300,1.040,10.140,1.660,2.060
8890508565,8890.508565,3.465661,0.310,0.290,1.030,8.430,1.760,3.850
8890516909,8890.516909,3.474005,0.300,0.290,1.050,4.900,2.400,6.110
8890522848,8890.522848,3.479944,0.300,0.280,1.040,4.350,2.370,6.950
8890528863,8890.528863,3.485959,0.290,0.280,1.030,4.120,2.230,7.220
8890537474,8890.537474,3.494570,0.300,0.290,1.040,4.460,2.150,6.260
8890544210,8890.544210,3.501306,0.300,0.290,1.030,6.210,2.090,5.620
8890550960,8890.550960,3.508056,0.310,0.270,1.040,7.570,2.270,5.480
8890557863,8890.557863,3.514959,0.310,0.280,1.050,8.090,2.180,6.080
8890563855,8890.563855,3.520951,0.300,0.290,1.060,7.890,2.500,5.920
8890571336,8890.571336,3.528432,0.300,0.270,1.030,8.550,3.040,5.650
8890579501,8890.579501,3.536597,0.300,0.270,1.030,9.820,2.890,4.780
8890586790,8890.586790,3.543886,0.300,0.220,1.000,11.560,2.400,5.660
8890592944,8890.592944,3.550040,0.260,0.230,1.040,12.210,2.920,6.690
8890599842,8890.599842,3.556938,0.300,0.200,0.990,11.690,3.130,10.470
8890605813,8890.605813,3.562909,0.310,0.150,1.020,12.430,4.400,14.600
8890614352,8890.614352,3.571448,0.330,0.130,1.080,15.400,4.950,19.920
8890623870,8890.623870,3.580966,0.330,0.230,1.120,21.620,6.810,23.210
8890629866,8890.629866,3.586962,0.220,0.140,0.880,24.720,5.660,24.630
8890635874,8890.635874,3.592970,0.290,0.180,0.980,30.930,5.980,23.450
8890641874,8890.641874,3.598970,0.310,0.220,1.140,35.790,7.190,22.440
8890647957,8890.647957,3.605053,0.320,0.260,0.960,41.210,4.990,21.240
8890655900,8890.655900,3.612996,0.290,0.210,0.900,50.120,3.360,16.520
8890664210,8890.664210,3.621306,0.270,0.210,1.050,55.400,0.230,15.770
8890670996,8890.670996,3.628092,0.490,0.180,1.390,11.940,0.990,36.240
8890677860,8890.677860,3.634956,0.420,0.260,1.100,56.690,4.210,22.750
8890686599,8890.686599,3.643695,0.410,0.240,1.140,31.620,-7.740,39.530
8890692884,8890.692884,3.649980,0.020,0.310,0.480,48.140,-0.630,27.150
8890699514,8890.699514,3.656610,0.510,0.300,1.050,49.440,-0.520,25.910
8890705854,8890.705854,3.662950,-0.140,0.240,0.450,17.680,-6.990,38.370
8890711872,8890.711872,3.668968,0.370,0.270,1.450,14.780,13.220,27.400
8890721322,8890.721322,3.678418,0.350,0.380,0.620,8.920,1.110,23.820
8890728390,8890.728390,3.685486,0.480,0.710,1.250,-7.820,0.430,24.550
8890734985,8890.734985,3.692081,0.380,0.790,1.160,-15.220,-2.700,22.780
8890740873,8890.740873,3.697969,0.310,0.030,0.710,-5.390,-1.250,19.910
8890747315,8890.747315,3.704411,0.450,0.300,1.160,-10.950,-2.950,17.950
8890754821,8890.754821,3.711917,0.460,0.270,1.310,11.440,5.310,2.920
8890761879,8890.761879,3.718975,0.310,0.180,0.980,17.300,3.950,-0.120
8890768494,8890.768494,3.725590,0.330,0.300,1.060,9.950,1.510,2.670
8890774827,8890.774827,3.731923,0.330,0.250,1.000,12.080,1.530,0.810
8890780813,8890.780813,3.737909,0.320,0.320,1.040,11.800,1.740,1.160
8890786798,8890.786798,3.743894,0.320,0.260,1.020,11.310,1.690,1.760
8890793558,8890.793558,3.750654,0.320,0.280,1.030,11.760,1.540,1.210
8890799995,8890.799995,3.757091,0.320,0.290,1.020,11.070,1.500,1.510
8890805809,8890.805809,3.762905,0.320,0.290,1.030,11.050,1.710,2.110
8890813328,8890.813328,3.770424,0.330,0.270,1.030,11.770,1.770,2.350
8890819963,8890.819963,3.777059,0.320,0.280,1.030,11.500,1.890,2.790
8890827236,8890.827236,3.784332,0.330,0.300,1.020,11.560,1.830,1.910
8890834930,8890.834930,3.792026,0.320,0.290,1.030,11.190,1.620,1.240
8890841867,8890.841867,3.798963,0.330,0.290,1.030,11.450,1.440,1.340
8890848858,8890.848858,3.805954,0.310,0.290,1.030,11.470,1.510,1.530
8890855887,8890.855887,3.812983,0.330,0.280,1.020,11.800,1.500,1.240
8890862883,8890.862883,3.819979,0.310,0.280,1.030,11.360,1.690,1.470
8890868856,8890.868856,3.825952,0.320,0.290,1.030,11.680,1.500,1.300
8890877051,8890.877051,3.834147,0.320,0.290,1.030,11.540,1.630,1.440
8890884732,8890.884732,3.841828,0.320,0.280,1.030,11.530,1.660,1.240
8890890965,8890.890965,3.848061,0.320,0.290,1.030,11.570,1.530,1.440
8890896860,8890.896860,3.853956,0.320,0.280,1.030,11.600,1.360,1.340
8890902851,8890.902851,3.859947,0.320,0.290,1.030,11.360,1.590,1.250
8890908805,8890.908805,3.865901,0.320,0.290,1.030,11.510,1.560,1.280
8890915525,8890.915525,3.872621,0.330,0.290,1.030,11.440,1.560,1.420
8890927047,8890.927047,3.884143,0.330,0.280,1.020,11.530,1.540,1.420
8890933865,8890.933865,3.890961,0.320,0.280,1.030,11.660,1.710,1.240
8890939861,8890.939861,3.896957,0.320,0.280,1.020,11.440,1.620,1.250
8890945881,8890.945881,3.902977,0.320,0.290,1.030,11.540,1.450,1.450
8890952008,8890.952008,3.909104,0.320,0.290,1.040,11.510,1.590,1.370
8890958961,8890.958961,3.916057,0.330,0.280,1.020,11.500,1.600,1.190
8890967901,8890.967901,3.924997,0.320,0.280,1.030,11.560,1.710,1.370
8890975672,8890.975672,3.932768,0.320,0.290,1.030,11.530,1.710,1.220
8890982917,8890.982917,3.940013,0.320,0.290,1.030,11.420,1.600,1.250
8890988911,8890.988911,3.946007,0.320,0.280,1.030,11.480,1.650,1.300
8890996875,8890.996875,3.953971,0.320,0.290,1.030,11.560,1.390,1.300
8891002846,8891.002846,3.959942,0.320,0.290,1.030,11.500,1.600,1.310
8891008998,8891.008998,3.966094,0.320,0.280,1.030,11.420,1.600,1.340
8891015841,8891.015841,3.972937,0.320,0.280,1.030,11.470,1.680,1.370
8891023732,8891.023732,3.980828,0.320,0.280,1.030,11.340,1.660,1.240
8891030862,8891.030862,3.987958,0.320,0.280,1.020,11.560,1.630,1.270
8891036850,8891.036850,3.993946,0.320,0.290,1.030,11.450,1.650,1.390
8891042833,8891.042833,3.999929,0.320,0.280,1.030,11.310,1.660,1.360
8891049187,8891.049187,4.006283,0.320,0.280,1.030,11.540,1.630,1.400
8891056658,8891.056658,4.013754,0.330,0.280,1.030,11.500,1.570,1.160
8891067138,8891.067138,4.024234,0.320,0.280,1.030,11.370,1.470,1.310
8891074974,8891.074974,4.032070,0.320,0.280,1.020,11.530,1.650,1.310
8891081853,8891.081853,4.038949,0.320,0.280,1.030,11.570,1.540,1.370
8891089807,8891.089807,4.046903,0.320,0.290,1.030,11.540,1.730,1.370
8891095867,8891.095867,4.052963,0.320,0.280,1.020,11.680,1.440,1.240
8891102078,8891.102078,4.059174,0.320,0.290,1.030,11.570,1.690,1.340
8891108998,8891.108998,4.066094,0.320,0.290,1.020,11.530,1.510,1.400
8891114936,8891.114936,4.072032,0.320,0.290,1.030,11.630,1.560,1.270
8891120825,8891.120825,4.077921,0.330,0.290,1.030,11.540,1.500,1.420
8891126798,8891.126798,4.083894,0.320,0.290,1.030,11.440,1.340,1.330
8891132803,8891.132803,4.089899,0.320,0.290,1.030,11.500,1.650,1.360
8891139299,8891.139299,4.096395,0.330,0.290,1.030,11.510,1.450,1.330
8891144810,8891.144810,4.101906,0.320,0.290,1.040,11.690,1.560,1.400
8891155877,8891.155877,4.112973,0.320,0.290,1.030,11.600,1.690,1.280
8891162899,8891.162899,4.119995,0.320,0.280,1.030,11.470,1.600,1.310
8891168914,8891.168914,4.126010,0.320,0.280,1.040,11.590,1.590,1.310
8891175048,8891.175048,4.132144,0.320,0.290,1.030,11.370,1.570,1.300
8891180859,8891.180859,4.137955,0.320,0.290,1.030,11.470,1.710,1.310
8891187904,8891.187904,4.145000,0.320,0.280,1.020,11.400,1.770,1.330
8891194865,8891.194865,4.151961,0.320,0.280,1.030,11.480,1.620,1.330
8891200909,8891.200909,4.158005,0.320,0.290,1.030,11.570,1.630,1.180
8891208915,8891.208915,4.166011,0.330,0.290,1.030,11.390,1.630,1.280
8891214816,8891.214816,4.171912,0.330,0.280,1.030,11.360,1.680,1.240
8891222462,8891.222462,4.179558,0.330,0.290,1.030,11.540,1.560,1.180
8891229711,8891.229711,4.186807,0.330,0.290,1.020,11.560,1.540,1.370
8891235862,8891.235862,4.192958,0.320,0.280,1.030,11.420,1.560,1.210
8891242955,8891.242955,4.200051,0.320,0.280,1.020,11.400,1.800,1.390
8891250872,8891.250872,4.207968,0.320,0.280,1.030,11.560,1.510,1.240
8891257864,8891.257864,4.214960,0.320,0.290,1.030,11.470,1.450,1.310
8891265451,8891.265451,4.222547,0.320,0.280,1.040,11.340,1.570,1.310
8891272226,8891.272226,4.229322,0.320,0.290,1.020,11.500,1.480,1.340
8891280056,8891.280056,4.237152,0.320,0.290,1.030,11.600,1.660,1.300
8891286845,8891.286845,4.243941,0.320,0.290,1.030,11.650,1.570,1.100
8891292828,8891.292828,4.249924,0.320,0.280,1.030,11.630,1.600,1.210
8891298856,8891.298856,4.255952,0.320,0.280,1.020,11.400,1.740,1.280
8891304828,8891.304828,4.261924,0.320,0.290,1.020,11.560,1.480,1.280
8891311867,8891.311867,4.268963,0.320,0.290,1.030,11.650,1.660,1.330
8891317812,8891.317812,4.274908,0.330,0.280,1.030,11.440,1.590,1.400
8891323862,8891.323862,4.280958,0.320,0.290,1.020,11.680,1.600,1.370
8891331875,8891.331875,4.288971,0.320,0.290,1.020,11.650,1.510,1.250
8891338622,8891.338622,4.295718,0.320,0.290,1.030,11.480,1.390,1.400
8891344891,8891.344891,4.301987,0.330,0.290,1.030,11.500,1.420,1.310
8891352098,8891.352098,4.309194,0.320,0.290,1.030,11.470,1.540,1.250
8891357858,8891.357858,4.314954,0.330,0.290,1.030,11.600,1.450,1.150
8891364162,8891.364162,4.321258,0.320,0.280,1.030,11.620,1.470,1.420
8891370903,8891.370903,4.327999,0.320,0.290,1.020,11.620,1.620,1.340
8891376863,8891.376863,4.333959,0.320,0.280,1.030,11.370,1.540,1.300
8891382911,8891.382911,4.340007,0.320,0.280,1.020,11.500,1.620,1.280
8891391290,8891.391290,4.348386,0.320,0.280,1.030,11.360,1.600,1.210
8891397865,8891.397865,4.354961,0.320,0.280,1.030,11.400,1.470,1.210
8891403797,8891.403797,4.360893,0.320,0.290,1.030,11.510,1.630,1.310
8891409859,8891.409859,4.366955,0.320,0.290,1.030,11.470,1.620,1.100
8891416843,8891.416843,4.373939,0.320,0.290,1.030,11.420,1.740,1.240
8891422792,8891.422792,4.379888,0.320,0.290,1.030,11.540,1.600,1.420
8891429849,8891.429849,4.386945,0.320,0.290,1.030,11.400,1.620,1.390
8891435829,8891.435829,4.392925,0.320,0.290,1.020,11.570,1.600,1.300
8891448865,8891.448865,4.405961,0.330,0.280,1.020,11.570,1.600,1.190
8891454857,8891.454857,4.411953,0.330,0.290,1.030,11.590,1.630,1.310
8891460867,8891.460867,4.417963,0.330,0.290,1.020,11.510,1.440,1.420
8891467340,8891.467340,4.424436,0.320,0.290,1.030,11.570,1.590,1.280
8891474890,8891.474890,4.431986,0.330,0.280,1.020,11.560,1.650,1.250
8891482519,8891.482519,4.439615,0.320,0.290,1.030,11.500,1.770,1.360
8891489869,8891.489869,4.446965,0.320,0.290,1.020,11.370,1.420,1.270
8891496701,8891.496701,4.453797,0.320,0.290,1.030,11.570,1.760,1.370
8891502870,8891.502870,4.459966,0.330,0.290,1.030,11.390,1.650,1.330
8891508892,8891.508892,4.465988,0.320,0.290,1.020,11.510,1.620,1.390
8891514862,8891.514862,4.471958,0.320,0.280,1.040,11.590,1.480,1.280
8891521838,8891.521838,4.478934,0.320,0.290,1.030,11.500,1.530,1.300
8891527866,8891.527866,4.484962,0.330,0.280,1.030,11.530,1.470,1.270
8891533845,8891.533845,4.490941,0.320,0.290,1.020,11.500,1.540,1.440
8891540771,8891.540771,4.497867,0.330,0.280,1.030,11.540,1.540,1.390
8891547860,8891.547860,4.504956,0.330,0.290,1.030,11.570,1.570,1.560
8891553854,8891.553854,4.510950,0.330,0.290,1.040,11.570,1.590,1.390
8891559870,8891.559870,4.516966,0.330,0.290,1.030,11.480,1.690,1.150
8891565914,8891.565914,4.523010,0.330,0.290,1.030,11.650,1.600,1.250
8891572916,8891.572916,4.530012,0.330,0.290,1.030,11.530,1.590,1.280
8891581344,8891.581344,4.538440,0.320,0.290,1.020,11.590,1.570,1.270
8891588875,8891.588875,4.545971,0.320,0.290,1.030,11.560,1.630,1.370
8891594869,8891.594869,4.551965,0.320,0.280,1.030,11.620,1.630,1.360
8891601862,8891.601862,4.558958,0.320,0.290,1.030,11.590,1.480,1.440
8891607827,8891.607827,4.564923,0.320,0.290,1.030,11.420,1.560,1.480
8891613930,8891.613930,4.571026,0.330,0.290,1.030,11.560,1.500,1.280
8891620862,8891.620862,4.577958,0.320,0.290,1.020,11.600,1.510,1.340
8891627085,8891.627085,4.584181,0.320,0.290,1.040,11.360,1.630,1.330
8891634871,8891.634871,4.591967,0.330,0.290,1.040,11.560,1.770,1.250
8891640796,8891.640796,4.597892,0.320,0.280,1.030,11.510,1.590,1.300
8891647301,8891.647301,4.604397,0.320,0.290,1.030,11.650,1.800,1.270
8891655894,8891.655894,4.612990,0.320,0.290,1.030,11.340,1.560,1.440
8891661845,8891.661845,4.618941,0.320,0.290,1.020,11.680,1.560,1.280
8891668966,8891.668966,4.626062,0.320,0.280,1.020,11.590,1.560,1.390
8891675154,8891.675154,4.632250,0.320,0.280,1.020,11.400,1.680,1.270
8891681945,8891.681945,4.639041,0.320,0.290,1.030,11.660,1.630,1.220
8891691880,8891.691880,4.648976,0.320,0.290,1.030,11.620,1.660,1.280
8891697822,8891.697822,4.654918,0.320,0.290,1.030,11.570,1.770,1.240
8891705092,8891.705092,4.662188,0.320,0.290,1.020,11.420,1.630,1.330
8891711865,8891.711865,4.668961,0.320,0.290,1.020,11.590,1.820,1.300
8891719671,8891.719671,4.676767,0.320,0.280,1.020,11.560,1.630,1.420
8891725878,8891.725878,4.682974,0.320,0.290,1.030,11.560,1.560,1.220
8891732147,8891.732147,4.689243,0.320,0.290,1.030,11.540,1.630,1.330
8891737840,8891.737840,4.694936,0.320,0.280,1.020,11.530,1.480,1.360
8891745626,8891.745626,4.702722,0.330,0.280,1.020,11.560,1.630,1.340
8891754862,8891.754862,4.711958,0.320,0.280,1.040,11.500,1.660,1.210
8891760828,8891.760828,4.717924,0.320,0.280,1.030,11.680,1.630,1.250
8891767873,8891.767873,4.724969,0.320,0.290,1.020,11.630,1.600,1.330
8891773884,8891.773884,4.730980,0.320,0.290,1.030,11.480,1.570,1.400
8891780870,8891.780870,4.737966,0.320,0.280,1.020,11.660,1.600,1.470
8891788674,8891.788674,4.745770,0.310,0.290,1.020,11.570,1.630,1.270
8891794841,8891.794841,4.751937,0.320,0.290,1.020,11.500,1.630,1.210
8891800934,8891.800934,4.758030,0.320,0.280,1.030,11.690,1.560,1.330
8891808996,8891.808996,4.766092,0.320,0.280,1.030,11.540,1.370,1.340
8891815009,8891.815009,4.772105,0.320,0.280,1.030,11.620,1.540,1.450
8891822043,8891.822043,4.779139,0.320,0.280,1.030,11.540,1.690,1.310
8891830880,8891.830880,4.787976,0.320,0.290,1.030,11.530,1.440,1.300
8891836799,8891.836799,4.793895,0.320,0.290,1.030,11.530,1.660,1.330
8891843428,8891.843428,4.800524,0.320,0.280,1.030,11.510,1.660,1.340
8891849856,8891.849856,4.806952,0.320,0.290,1.020,11.400,1.500,1.470
8891855879,8891.855879,4.812975,0.320,0.290,1.030,11.600,1.480,1.300
8891861935,8891.861935,4.819031,0.320,0.290,1.020,11.510,1.570,1.300
8891867827,8891.867827,4.824923,0.320,0.290,1.020,11.570,1.600,1.210
8891874524,8891.874524,4.831620,0.320,0.280,1.020,11.560,1.620,1.370
8891885527,8891.885527,4.842623,0.320,0.280,1.020,11.510,1.710,1.220
8891893871,8891.893871,4.850967,0.320,0.290,1.030,11.510,1.480,1.310
8891900034,8891.900034,4.857130,0.320,0.280,1.030,11.540,1.660,1.240
8891906848,8891.906848,4.863944,0.330,0.280,1.030,11.560,1.630,1.340
8891913877,8891.913877,4.870973,0.320,0.280,1.040,11.370,1.690,1.270
8891919943,8891.919943,4.877039,0.320,0.290,1.040,11.450,1.650,1.250
8891926869,8891.926869,4.883965,0.330,0.290,1.030,11.370,1.770,1.310
8891932841,8891.932841,4.889937,0.320,0.290,1.020,11.440,1.600,1.360
8891938813,8891.938813,4.895909,0.320,0.290,1.030,11.630,1.570,1.220
8891944797,8891.944797,4.901893,0.320,0.290,1.030,11.470,1.590,1.250
8891950824,8891.950824,4.907920,0.330,0.280,1.030,11.370,1.450,1.390
8891959372,8891.959372,4.916468,0.320,0.290,1.030,11.650,1.400,1.370
8891965953,8891.965953,4.923049,0.320,0.280,1.030,11.530,1.570,1.340
8891971853,8891.971853,4.928949,0.320,0.290,1.030,11.400,1.560,1.160
8891977889,8891.977889,4.934985,0.320,0.280,1.020,11.620,1.510,1.300
8891984363,8891.984363,4.941459,0.320,0.290,1.030,11.400,1.540,1.300
8891992035,8891.992035,4.949131,0.320,0.280,1.030,11.500,1.690,1.300
8892000940,8892.000940,4.958036,0.320,0.290,1.020,11.540,1.630,1.240
8892006813,8892.006813,4.963909,0.330,0.290,1.020,11.420,1.470,1.250
8892012836,8892.012836,4.969932,0.330,0.280,1.030,11.600,1.590,1.400
8892018799,8892.018799,4.975895,0.320,0.290,1.030,11.590,1.600,1.370
8892024989,8892.024989,4.982085,0.320,0.290,1.020,11.360,1.510,1.240
8892030855,8892.030855,4.987951,0.320,0.290,1.030,11.560,1.560,1.340
8892036807,8892.036807,4.993903,0.320,0.290,1.020,11.480,1.590,1.220
8892048871,8892.048871,5.005967,0.320,0.290,1.030,11.620,1.650,1.300
8892054969,8892.054969,5.012065,0.320,0.290,1.020,11.450,1.630,1.370
8892060871,8892.060871,5.017967,0.320,0.280,1.030,11.500,1.510,1.310
8892066860,8892.066860,5.023956,0.320,0.290,1.030,11.440,1.630,1.300
8892073996,8892.073996,5.031092,0.320,0.290,1.030,11.500,1.590,1.270
8892081897,8892.081897,5.038993,0.320,0.280,1.030,11.560,1.650,1.450
8892087883,8892.087883,5.044979,0.330,0.290,1.030,11.440,1.710,1.330
8892093843,8892.093843,5.050939,0.320,0.290,1.030,11.480,1.510,1.300
8892100416,8892.100416,5.057512,0.320,0.280,1.020,11.530,1.680,1.210
8892106860,8892.106860,5.063956,0.320,0.290,1.020,11.560,1.600,1.400
8892113044,8892.113044,5.070140,0.320,0.290,1.030,11.570,1.570,1.420
8892118841,8892.118841,5.075937,0.320,0.290,1.030,11.650,1.680,1.210
8892126877,8892.126877,5.083973,0.320,0.290,1.030,11.510,1.650,1.300
8892134112,8892.134112,5.091208,0.320,0.290,1.030,11.470,1.570,1.360
8892139849,8892.139849,5.096945,0.320,0.290,1.030,11.540,1.650,1.240
8892147923,8892.147923,5.105019,0.320,0.280,1.030,11.500,1.630,1.370
8892154885,8892.154885,5.111981,0.320,0.280,1.030,11.510,1.730,1.340
8892161580,8892.161580,5.118676,0.320,0.290,1.030,11.420,1.500,1.330
8892167864,8892.167864,5.124960,0.330,0.290,1.030,11.510,1.500,1.300
8892173988,8892.173988,5.131084,0.320,0.280,1.020,11.530,1.620,1.300
8892180866,8892.180866,5.137962,0.310,0.290,1.020,11.180,1.470,1.400
8892189937,8892.189937,5.147033,0.330,0.290,1.040,11.910,1.770,1.050
8892198716,8892.198716,5.155812,0.310,0.290,1.010,10.780,1.590,1.650
8892204843,8892.204843,5.161939,0.330,0.290,1.030,11.740,1.690,1.010
8892210988,8892.210988,5.168084,0.320,0.290,1.040,11.510,1.730,1.160
8892217854,8892.217854,5.174950,0.320,0.280,1.030,11.800,1.740,1.190
8892224491,8892.224491,5.181587,0.320,0.290,1.040,11.370,1.600,1.370
8892231006,8892.231006,5.188102,0.320,0.290,1.020,11.600,1.530,1.270
8892236831,8892.236831,5.193927,0.320,0.280,1.030,11.480,1.630,1.420
8892242797,8892.242797,5.199893,0.320,0.280,1.030,11.680,1.710,1.190
8892248968,8892.248968,5.206064,0.320,0.290,1.030,11.240,1.540,1.400
8892255834,8892.255834,5.212930,0.320,0.280,1.020,11.680,1.620,1.270
8892263868,8892.263868,5.220964,0.320,0.280,1.030,11.560,1.590,1.190
8892269856,8892.269856,5.226952,0.320,0.290,1.030,11.740,1.510,1.210
8892275866,8892.275866,5.232962,0.320,0.280,1.030,11.470,1.660,1.240
8892281858,8892.281858,5.238954,0.320,0.290,1.020,11.540,1.820,1.310
8892289386,8892.289386,5.246482,0.320,0.290,1.030,11.590,1.560,1.250
8892297888,8892.297888,5.254984,0.320,0.290,1.030,11.540,1.540,1.440
8892303824,8892.303824,5.260920,0.330,0.290,1.030,11.660,1.510,1.250
8892309815,8892.309815,5.266911,0.320,0.280,1.030,11.370,1.590,1.400
8892318050,8892.318050,5.275146,0.320,0.290,1.020,11.600,1.620,1.160
8892323983,8892.323983,5.281079,0.320,0.280,1.030,11.400,1.540,1.390
8892331369,8892.331369,5.288465,0.330,0.290,1.020,11.570,1.540,1.330
8892338165,8892.338165,5.295261,0.320,0.280,1.030,11.630,1.650,1.280
8892344879,8892.344879,5.301975,0.320,0.280,1.020,11.440,1.680,1.330
8892351160,8892.351160,5.308256,0.320,0.290,1.030,11.510,1.630,1.130
8892359261,8892.359261,5.316357,0.320,0.280,1.030,11.500,1.600,1.500
8892365856,8892.365856,5.322952,0.330,0.290,1.020,11.540,1.530,1.360
8892372853,8892.372853,5.329949,0.330,0.280,1.030,11.530,1.650,1.310
8892378816,8892.378816,5.335912,0.330,0.290,1.030,11.680,1.620,1.180
8892384982,8892.384982,5.342078,0.320,0.290,1.030,11.470,1.540,1.390
8892393311,8892.393311,5.350407,0.310,0.280,1.030,11.530,1.620,1.250
8892400128,8892.400128,5.357224,0.330,0.280,1.030,11.590,1.660,1.390
8892408194,8892.408194,5.365290,0.320,0.290,1.030,11.440,1.680,1.330
8892414878,8892.414878,5.371974,0.320,0.290,1.030,11.650,1.740,1.300
8892421866,8892.421866,5.378962,0.320,0.290,1.030,11.480,1.420,1.450
8892428447,8892.428447,5.385543,0.320,0.290,1.020,11.530,1.740,1.220
8892434995,8892.434995,5.392091,0.320,0.290,1.030,11.560,1.560,1.280
8892441123,8892.441123,5.398219,0.320,0.290,1.030,11.500,1.800,1.240
8892447839,8892.447839,5.404935,0.320,0.290,1.020,11.590,1.530,1.270
8892453852,8892.453852,5.410948,0.320,0.280,1.030,11.590,1.680,1.340
8892459846,8892.459846,5.416942,0.330,0.290,1.030,11.590,1.660,1.360
8892469867,8892.469867,5.426963,0.320,0.290,1.030,11.370,1.680,1.330
8892475856,8892.475856,5.432952,0.320,0.290,1.030,11.510,1.540,1.190
8892483009,8892.483009,5.440105,0.320,0.290,1.030,11.600,1.530,1.240
8892489185,8892.489185,5.446281,0.320,0.280,1.030,11.680,1.650,1.250
8892496400,8892.496400,5.453496,0.320,0.280,1.030,11.470,1.680,1.310
8892503987,8892.503987,5.461083,0.320,0.290,1.030,11.370,1.590,1.270
8892510277,8892.510277,5.467373,0.330,0.290,1.020,11.450,1.730,1.280
8892516868,8892.516868,5.473964,0.320,0.280,1.030,11.510,1.570,1.300
8892525000,8892.525000,5.482096,0.320,0.290,1.020,11.390,1.620,1.370
8892530843,8892.530843,5.487939,0.330,0.280,1.030,11.420,1.690,1.400
8892538061,8892.538061,5.495157,0.320,0.280,1.030,11.560,1.540,1.360
8892543864,8892.543864,5.500960,0.320,0.290,1.020,11.560,1.400,1.280
8892550879,8892.550879,5.507975,0.330,0.290,1.030,11.510,1.710,1.240
8892556946,8892.556946,5.514042,0.320,0.290,1.030,11.540,1.710,1.280
8892564877,8892.564877,5.521973,0.320,0.280,1.030,11.590,1.590,1.330
8892571409,8892.571409,5.528505,0.320,0.290,1.030,11.510,1.630,1.420
8892578872,8892.578872,5.535968,0.330,0.290,1.030,11.280,1.600,1.440
8892584860,8892.584860,5.541956,0.320,0.290,1.030,11.440,1.680,1.400
8892590868,8892.590868,5.547964,0.320,0.290,1.030,11.510,1.620,1.110
8892597257,8892.597257,5.554353,0.320,0.280,1.020,11.420,1.530,1.310
8892604022,8892.604022,5.561118,0.320,0.280,1.030,11.360,1.570,1.440
8892611936,8892.611936,5.569032,0.320,0.290,1.030,11.650,1.500,1.330
8892617820,8892.617820,5.574916,0.310,0.290,1.030,11.390,1.570,1.370
8892623822,8892.623822,5.580918,0.320,0.280,1.030,11.440,1.420,1.370
8892629860,8892.629860,5.586956,0.320,0.280,1.020,11.530,1.850,1.440
8892635852,8892.635852,5.592948,0.320,0.280,1.030,11.440,1.680,1.310
8892641856,8892.641856,5.598952,0.320,0.290,1.020,11.360,1.690,1.280
8892647828,8892.647828,5.604924,0.320,0.290,1.030,11.590,1.590,1.270
8892658407,8892.658407,5.615503,0.330,0.280,1.020,11.590,1.710,1.370
8892670965,8892.670965,5.628061,0.320,0.290,1.030,11.400,1.500,1.330
8892678671,8892.678671,5.635767,0.310,0.290,1.010,11.470,1.540,1.480
8892684867,8892.684867,5.641963,0.330,0.280,1.030,11.530,1.500,1.310
8892691127,8892.691127,5.648223,0.320,0.280,1.030,11.590,1.620,1.220
8892700567,8892.700567,5.657663,0.320,0.290,1.030,11.450,1.510,1.130
8892706995,8892.706995,5.664091,0.320,0.280,1.040,11.510,1.590,1.250
8892714553,8892.714553,5.671649,0.320,0.280,1.030,11.590,1.590,1.270
8892720871,8892.720871,5.677967,0.320,0.290,1.030,11.470,1.510,1.340
8892727869,8892.727869,5.684965,0.320,0.290,1.020,11.470,1.440,1.310
8892733858,8892.733858,5.690954,0.320,0.290,1.020,11.510,1.510,1.330
8892739807,8892.739807,5.696903,0.330,0.290,1.030,11.500,1.450,1.310
8892745972,8892.745972,5.703068,0.320,0.280,1.030,11.440,1.590,1.220
8892753988,8892.753988,5.711084,0.320,0.280,1.030,11.470,1.450,1.300
8892759932,8892.759932,5.717028,0.320,0.290,1.030,11.590,1.690,1.190
8892769925,8892.769925,5.727021,0.320,0.290,1.030,11.470,1.690,1.450
8892775852,8892.775852,5.732948,0.320,0.280,1.040,11.530,1.540,1.340
8892781880,8892.781880,5.738976,0.320,0.290,1.020,11.450,1.510,1.280
8892787849,8892.787849,5.744945,0.320,0.290,1.020,11.540,1.480,1.440
8892793872,8892.793872,5.750968,0.320,0.290,1.030,11.510,1.470,1.250
8892800917,8892.800917,5.758013,0.320,0.290,1.030,11.480,1.570,1.190
8892811308,8892.811308,5.768404,0.330,0.280,1.030,11.510,1.560,1.330
8892817848,8892.817848,5.774944,0.320,0.290,1.030,11.400,1.620,1.210
8892824471,8892.824471,5.781567,0.320,0.290,1.020,11.390,1.530,1.270
8892830866,8892.830866,5.787962,0.320,0.290,1.030,11.360,1.530,1.330
8892838858,8892.838858,5.795954,0.320,0.290,1.030,11.510,1.620,1.210
8892845435,8892.845435,5.802531,0.330,0.280,1.020,11.500,1.570,1.300
8892852079,8892.852079,5.809175,0.320,0.290,1.030,11.420,1.690,1.100
8892858861,8892.858861,5.815957,0.320,0.280,1.010,11.480,1.570,1.340
8892865892,8892.865892,5.822988,0.320,0.290,1.020,11.650,1.730,1.340
8892874060,8892.874060,5.831156,0.320,0.290,1.040,11.500,1.620,1.250
8892880862,8892.880862,5.837958,0.320,0.280,1.030,11.620,1.570,1.310
8892886962,8892.886962,5.844058,0.320,0.290,1.030,11.470,1.630,1.360
8892893877,8892.893877,5.850973,0.320,0.290,1.030,11.500,1.510,1.190
8892899915,8892.899915,5.857011,0.320,0.290,1.020,11.390,1.560,1.400
8892908914,8892.908914,5.866010,0.330,0.280,1.020,11.510,1.540,1.270
8892915946,8892.915946,5.873042,0.320,0.280,1.020,11.590,1.650,1.440
8892922846,8892.922846,5.879942,0.320,0.290,1.030,11.570,1.620,1.300
8892928825,8892.928825,5.885921,0.320,0.290,1.030,11.500,1.450,1.240
8892934813,8892.934813,5.891909,0.320,0.290,1.030,11.560,1.730,1.440
8892940795,8892.940795,5.897891,0.330,0.290,1.030,11.600,1.570,1.330
8892946826,8892.946826,5.903922,0.320,0.280,1.030,11.480,1.620,1.360
8892952809,8892.952809,5.909905,0.320,0.280,1.020,11.530,1.400,1.270
8892980059,8892.980059,5.937155,0.320,0.290,1.030,11.540,1.740,1.070
8892986120,8892.986120,5.943216,0.320,0.290,1.030,11.500,1.600,1.070
8892991983,8892.991983,5.949079,0.320,0.290,1.020,11.400,1.540,1.440
8892997838,8892.997838,5.954934,0.320,0.290,1.030,11.540,1.530,1.280
8893003969,8893.003969,5.961065,0.330,0.280,1.020,11.570,1.620,1.340
8893011350,8893.011350,5.968446,0.310,0.290,1.030,11.590,1.560,1.240
8893019318,8893.019318,5.976414,0.320,0.290,1.030,11.470,1.590,1.190
8893025870,8893.025870,5.982966,0.320,0.290,1.030,11.450,1.540,1.370
8893033000,8893.033000,5.990096,0.320,0.290,1.020,11.420,1.620,1.240
8893040865,8893.040865,5.997961,0.320,0.290,1.030,11.620,1.500,1.420
8893046862,8893.046862,6.003958,0.320,0.280,1.030,11.570,1.530,1.310
8893052891,8893.052891,6.009987,0.320,0.280,1.030,11.570,1.710,1.360
8893060847,8893.060847,6.017943,0.320,0.290,1.030,11.470,1.680,1.420
8893069470,8893.069470,6.026566,0.320,0.290,1.020,11.540,1.600,1.340
8893077194,8893.077194,6.034290,0.330,0.280,1.030,11.530,1.660,1.270
8893083849,8893.083849,6.040945,0.320,0.290,1.030,11.510,1.630,1.370
8893089902,8893.089902,6.046998,0.330,0.290,1.020,11.500,1.470,1.240
8893096650,8893.096650,6.053746,0.320,0.280,1.030,11.510,1.510,1.270
8893102990,8893.102990,6.060086,0.320,0.280,1.020,11.400,1.650,1.390
8893109554,8893.109554,6.066650,0.320,0.290,1.030,11.480,1.710,1.210
8893116016,8893.116016,6.073112,0.320,0.280,1.020,11.510,1.590,1.280
8893122826,8893.122826,6.079922,0.320,0.290,1.020,11.340,1.650,1.240
8893128980,8893.128980,6.086076,0.320,0.290,1.020,11.480,1.620,1.400
8893134797,8893.134797,6.091893,0.330,0.280,1.030,11.510,1.420,1.480
8893140813,8893.140813,6.097909,0.330,0.290,1.030,11.560,1.650,1.280
8893146795,8893.146795,6.103891,0.320,0.290,1.030,11.600,1.730,1.330
8893152801,8893.152801,6.109897,0.320,0.290,1.030,11.360,1.570,1.300
8893158816,8893.158816,6.115912,0.320,0.280,1.020,11.470,1.570,1.240
8893188079,8893.188079,6.145175,0.330,0.280,1.030,11.570,1.590,1.250
8893193934,8893.193934,6.151030,0.320,0.290,1.030,11.420,1.690,1.340
8893200061,8893.200061,6.157157,0.320,0.290,1.030,11.440,1.500,1.370
8893206886,8893.206886,6.163982,0.320,0.290,1.020,11.590,1.650,1.340
8893213995,8893.213995,6.171091,0.310,0.290,1.030,11.500,1.540,1.370
8893220087,8893.220087,6.177183,0.320,0.290,1.020,11.630,1.650,1.300
8893226810,8893.226810,6.183906,0.320,0.290,1.020,11.470,1.440,1.480
8893232842,8893.232842,6.189938,0.320,0.290,1.020,11.480,1.620,1.280
8893238829,8893.238829,6.195925,0.330,0.290,1.030,11.500,1.660,1.310
8893244798,8893.244798,6.201894,0.320,0.280,1.030,11.530,1.530,1.270
8893250810,8893.250810,6.207906,0.320,0.280,1.020,11.510,1.690,1.210
8893256833,8893.256833,6.213929,0.330,0.290,1.030,11.560,1.630,1.400
8893262798,8893.262798,6.219894,0.320,0.280,1.030,11.400,1.620,1.310
8893268805,8893.268805,6.225901,0.320,0.290,1.020,11.530,1.570,1.370
8893298881,8893.298881,6.255977,0.320,0.290,1.020,11.500,1.590,1.400
8893304854,8893.304854,6.261950,0.320,0.290,1.030,11.450,1.730,1.370
8893310886,8893.310886,6.267982,0.320,0.290,1.020,11.540,1.680,1.400
8893317891,8893.317891,6.274987,0.320,0.290,1.030,11.600,1.450,1.340
8893325896,8893.325896,6.282992,0.320,0.290,1.030,11.560,1.620,1.400
8893333867,8893.333867,6.290963,0.320,0.290,1.030,11.370,1.540,1.150
8893339845,8893.339845,6.296941,0.320,0.280,1.030,11.690,1.400,1.300
8893346631,8893.346631,6.303727,0.330,0.280,1.030,11.450,1.590,1.310
8893353245,8893.353245,6.310341,0.320,0.290,1.030,11.530,1.630,1.370
8893359840,8893.359840,6.316936,0.330,0.290,1.030,11.420,1.850,1.390
8893365809,8893.365809,6.322905,0.320,0.280,1.030,11.440,1.660,1.270
8893371847,8893.371847,6.328943,0.320,0.290,1.030,11.710,1.570,1.310
8893380878,8893.380878,6.337974,0.320,0.290,1.040,11.440,1.600,1.280
8893398871,8893.398871,6.355967,0.320,0.290,1.030,11.470,1.660,1.480
8893404852,8893.404852,6.361948,0.330,0.290,1.030,11.470,1.630,1.360
8893410878,8893.410878,6.367974,0.320,0.290,1.020,11.440,1.560,1.210
8893417789,8893.417789,6.374885,0.330,0.290,1.020,11.590,1.570,1.310
8893423841,8893.423841,6.380937,0.320,0.290,1.020,11.450,1.510,1.280
8893432378,8893.432378,6.389474,0.320,0.280,1.030,11.530,1.540,1.360
8893438850,8893.438850,6.395946,0.330,0.280,1.030,11.500,1.660,1.340
8893446644,8893.446644,6.403740,0.320,0.290,1.030,11.450,1.770,1.300
8893452837,8893.452837,6.409933,0.330,0.290,1.030,11.570,1.450,1.270
8893460010,8893.460010,6.417106,0.330,0.280,1.020,11.500,1.480,1.420
8893466869,8893.466869,6.423965,0.320,0.280,1.040,11.510,1.570,1.220
8893472966,8893.472966,6.430062,0.320,0.290,1.030,11.650,1.680,1.270
8893480179,8893.480179,6.437275,0.320,0.290,1.020,11.600,1.630,1.440
8893489889,8893.489889,6.446985,0.320,0.290,1.030,11.650,1.650,1.240
8893495855,8893.495855,6.452951,0.320,0.290,1.020,11.530,1.570,1.250
8893501859,8893.501859,6.458955,0.330,0.290,1.030,11.560,1.540,1.150
8893508086,8893.508086,6.465182,0.320,0.280,1.040,11.600,1.540,1.250
8893514235,8893.514235,6.471331,0.320,0.280,1.030,11.600,1.600,1.420
8893521033,8893.521033,6.478129,0.320,0.280,1.020,11.450,1.590,1.300
8893526872,8893.526872,6.483968,0.320,0.290,1.040,11.560,1.570,1.270
8893536018,8893.536018,6.493114,0.320,0.290,1.030,11.590,1.540,1.080
8893542189,8893.542189,6.499285,0.320,0.280,1.030,11.510,1.630,1.310
8893549867,8893.549867,6.506963,0.320,0.290,1.030,11.570,1.530,1.250
8893555830,8893.555830,6.512926,0.330,0.290,1.030,11.420,1.630,1.330
8893562900,8893.562900,6.519996,0.320,0.280,1.030,11.560,1.590,1.250
8893569850,8893.569850,6.526946,0.320,0.290,1.030,11.360,1.530,1.360
8893575850,8893.575850,6.532946,0.320,0.290,1.030,11.420,1.590,1.330
8893581859,8893.581859,6.538955,0.320,0.290,1.020,11.560,1.530,1.340
8893588777,8893.588777,6.545873,0.330,0.280,1.030,11.560,1.760,1.150
8893596860,8893.596860,6.553956,0.320,0.280,1.030,11.560,1.730,1.300
8893602851,8893.602851,6.559947,0.320,0.290,1.030,11.500,1.690,1.220
8893608858,8893.608858,6.565954,0.320,0.290,1.030,11.450,1.590,1.270
8893614862,8893.614862,6.571958,0.320,0.290,1.030,11.470,1.690,1.280
8893621373,8893.621373,6.578469,0.330,0.290,1.030,11.440,1.590,1.210
8893628152,8893.628152,6.585248,0.320,0.280,1.020,11.500,1.470,1.470
8893634862,8893.634862,6.591958,0.320,0.280,1.020,11.590,1.590,1.390
8893640885,8893.640885,6.597981,0.320,0.290,1.020,11.620,1.660,1.270
8893646919,8893.646919,6.604015,0.320,0.290,1.030,11.560,1.690,1.390
8893653032,8893.653032,6.610128,0.320,0.290,1.030,11.420,1.630,1.310
8893658819,8893.658819,6.615915,0.320,0.290,1.030,11.540,1.600,1.250
8893664847,8893.664847,6.621943,0.320,0.290,1.040,11.530,1.510,1.370
8893670822,8893.670822,6.627918,0.330,0.280,1.030,11.500,1.500,1.470
8893683334,8893.683334,6.640430,0.320,0.280,1.030,11.540,1.510,1.300
8893691862,8893.691862,6.648958,0.320,0.290,1.020,11.560,1.570,1.340
8893697860,8893.697860,6.654956,0.320,0.280,1.030,11.450,1.510,1.240
8893703862,8893.703862,6.660958,0.320,0.280,1.030,11.590,1.620,1.210
8893709989,8893.709989,6.667085,0.320,0.290,1.020,11.560,1.560,1.360
8893716906,8893.716906,6.674002,0.320,0.280,1.030,11.530,1.570,1.270
8893726738,8893.726738,6.683834,0.320,0.290,1.040,11.570,1.630,1.420
8893734371,8893.734371,6.691467,0.320,0.280,1.010,11.510,1.530,1.330
8893741013,8893.741013,6.698109,0.320,0.290,1.030,11.600,1.630,1.250
8893747991,8893.747991,6.705087,0.320,0.290,1.040,11.510,1.650,1.280
8893755871,8893.755871,6.712967,0.320,0.290,1.030,11.540,1.560,1.270
8893762053,8893.762053,6.719149,0.320,0.290,1.020,11.650,1.650,1.420
8893767945,8893.767945,6.725041,0.320,0.280,1.020,11.570,1.560,1.340
8893773848,8893.773848,6.730944,0.320,0.290,1.020,11.480,1.590,1.300
8893779808,8893.779808,6.736904,0.320,0.290,1.030,11.510,1.480,1.420
8893785846,8893.785846,6.742942,0.330,0.290,1.030,11.480,1.500,1.240
8893791805,8893.791805,6.748901,0.320,0.290,1.030,11.510,1.690,1.270
8893797847,8893.797847,6.754943,0.320,0.290,1.030,11.600,1.480,1.340
8893808861,8893.808861,6.765957,0.320,0.290,1.030,11.560,1.530,1.280
8893814859,8893.814859,6.771955,0.320,0.290,1.030,11.530,1.590,1.330
8893832975,8893.832975,6.790071,0.330,0.290,1.030,11.540,1.620,1.360
8893840885,8893.840885,6.797981,0.330,0.280,1.030,11.470,1.630,1.470
8893846834,8893.846834,6.803930,0.320,0.290,1.030,11.600,1.570,1.360
8893852872,8893.852872,6.809968,0.320,0.290,1.040,11.530,1.770,1.180
8893858843,8893.858843,6.815939,0.320,0.290,1.030,11.500,1.560,1.280
8893864878,8893.864878,6.821974,0.330,0.280,1.030,11.420,1.620,1.330
8893870854,8893.870854,6.827950,0.320,0.290,1.020,11.450,1.500,1.480
8893876799,8893.876799,6.833895,0.320,0.280,1.030,11.370,1.530,1.400
8893882798,8893.882798,6.839894,0.320,0.290,1.030,11.560,1.590,1.270
8893888796,8893.888796,6.845892,0.320,0.290,1.030,11.480,1.600,1.300
8893897872,8893.897872,6.854968,0.320,0.280,1.030,11.480,1.620,1.310
8893904394,8893.904394,6.861490,0.330,0.290,1.020,11.710,1.600,1.330
8893911859,8893.911859,6.868955,0.330,0.290,1.020,11.450,1.770,1.420
8893918245,8893.918245,6.875341,0.320,0.280,1.020,11.590,1.630,1.370
8893924876,8893.924876,6.881972,0.320,0.280,1.030,11.540,1.590,1.100
8893935258,8893.935258,6.892354,0.320,0.270,1.020,11.450,1.570,1.310
8893941847,8893.941847,6.898943,0.330,0.290,1.030,11.560,1.650,1.360
8893947833,8893.947833,6.904929,0.320,0.280,1.020,11.660,1.470,1.400
8893953853,8893.953853,6.910949,0.320,0.280,1.030,11.530,1.600,1.420
8893959828,8893.959828,6.916924,0.320,0.290,1.020,11.570,1.690,1.470
8893965827,8893.965827,6.922923,0.320,0.290,1.020,11.400,1.570,1.220
8893971891,8893.971891,6.928987,0.320,0.290,1.030,11.590,1.600,1.390
8893977815,8893.977815,6.934911,0.320,0.290,1.030,11.330,1.590,1.220
8893994875,8893.994875,6.951971,0.320,0.290,1.020,11.600,1.620,1.310
8894000909,8894.000909,6.958005,0.330,0.290,1.020,11.480,1.540,1.240
8894006868,8894.006868,6.963964,0.320,0.290,1.030,11.510,1.680,1.310
8894013199,8894.013199,6.970295,0.320,0.280,1.030,11.420,1.630,1.190
8894019883,8894.019883,6.976979,0.320,0.290,1.030,11.510,1.500,1.310
8894026816,8894.026816,6.983912,0.330,0.280,1.020,11.480,1.600,1.360
8894033235,8894.033235,6.990331,0.330,0.280,1.020,11.590,1.650,1.360
8894038931,8894.038931,6.996027,0.320,0.290,1.030,11.600,1.450,1.250
8894046052,8894.046052,7.003148,0.320,0.280,1.030,11.470,1.630,1.250
8894051963,8894.051963,7.009059,0.320,0.290,1.020,11.420,1.480,1.330
8894059365,8894.059365,7.016461,0.320,0.280,1.030,11.480,1.570,1.400
8894065884,8894.065884,7.022980,0.320,0.290,1.030,11.440,1.570,1.280
8894072853,8894.072853,7.029949,0.320,0.290,1.020,11.530,1.600,1.190
8894078919,8894.078919,7.036015,0.320,0.290,1.030,11.530,1.590,1.210
8894084797,8894.084797,7.041893,0.320,0.280,1.030,11.600,1.590,1.300
8894091324,8894.091324,7.048420,0.330,0.290,1.030,11.420,1.690,1.390
8894098891,8894.098891,7.055987,0.320,0.290,1.020,11.570,1.500,1.400
8894105114,8894.105114,7.062210,0.320,0.290,1.030,11.600,1.660,1.330
8894110963,8894.110963,7.068059,0.320,0.290,1.020,11.500,1.630,1.340
8894116854,8894.116854,7.073950,0.320,0.290,1.030,11.530,1.480,1.190
8894124072,8894.124072,7.081168,0.320,0.290,1.030,11.650,1.650,1.270
8894134488,8894.134488,7.091584,0.320,0.290,1.030,11.620,1.660,1.270
8894140945,8894.140945,7.098041,0.320,0.280,1.030,11.450,1.530,1.340
8894146862,8894.146862,7.103958,0.320,0.290,1.030,11.590,1.480,1.340
8894152888,8894.152888,7.109984,0.320,0.290,1.030,11.560,1.600,1.300
8894159862,8894.159862,7.116958,0.320,0.290,1.030,11.560,1.660,1.370
8894166276,8894.166276,7.123372,0.320,0.290,1.020,11.510,1.590,1.270
8894172923,8894.172923,7.130019,0.320,0.280,1.030,11.590,1.540,1.390
8894178812,8894.178812,7.135908,0.320,0.290,1.020,11.420,1.570,1.210
8894184836,8894.184836,7.141932,0.330,0.290,1.030,11.500,1.920,1.280
8894190800,8894.190800,7.147896,0.330,0.280,1.030,11.530,1.570,1.440
8894197764,8894.197764,7.154860,0.330,0.280,1.020,11.420,1.630,1.280
8894205859,8894.205859,7.162955,0.320,0.290,1.030,11.440,1.540,1.110
8894211848,8894.211848,7.168944,0.330,0.290,1.030,11.620,1.690,1.250
8894218857,8894.218857,7.175953,0.310,0.290,1.030,11.620,1.530,1.250
8894224876,8894.224876,7.181972,0.320,0.280,1.020,11.480,1.530,1.270
8894230900,8894.230900,7.187996,0.320,0.290,1.020,11.480,1.740,1.270
8894238597,8894.238597,7.195693,0.320,0.290,1.020,11.510,1.620,1.310
8894245731,8894.245731,7.202827,0.320,0.290,1.030,11.510,1.540,1.280
8894252937,8894.252937,7.210033,0.320,0.290,1.020,11.470,1.620,1.360
8894260033,8894.260033,7.217129,0.320,0.290,1.030,11.500,1.630,1.280
8894266866,8894.266866,7.223962,0.310,0.280,1.030,11.440,1.650,1.250
8894273032,8894.273032,7.230128,0.320,0.290,1.020,11.390,1.730,1.280
8894280361,8894.280361,7.237457,0.320,0.290,1.020,11.500,1.600,1.360
8894286827,8894.286827,7.243923,0.320,0.280,1.030,11.470,1.530,1.270
8894292856,8894.292856,7.249952,0.320,0.290,1.030,11.390,1.620,1.360
8894301044,8894.301044,7.258140,0.320,0.280,1.030,11.590,1.440,1.220
8894308542,8894.308542,7.265638,0.320,0.280,1.030,11.390,1.510,1.270
8894314863,8894.314863,7.271959,0.320,0.290,1.020,11.470,1.340,1.160
8894320865,8894.320865,7.277961,0.320,0.290,1.030,11.470,1.560,1.330
8894326855,8894.326855,7.283951,0.320,0.280,1.030,11.540,1.650,1.360
8894336037,8894.336037,7.293133,0.320,0.290,1.020,11.530,1.650,1.370
8894343893,8894.343893,7.300989,0.320,0.280,1.030,11.660,1.530,1.130
8894351625,8894.351625,7.308721,0.330,0.290,1.020,11.570,1.450,1.270
8894357867,8894.357867,7.314963,0.320,0.290,1.020,11.500,1.680,1.270
8894363860,8894.363860,7.320956,0.330,0.280,1.030,11.570,1.650,1.150
8894370936,8894.370936,7.328032,0.330,0.290,1.030,11.400,1.710,1.250
8894376851,8894.376851,7.333947,0.330,0.290,1.040,11.510,1.600,1.470
8894382824,8894.382824,7.339920,0.320,0.290,1.020,11.620,1.450,1.370
8894388797,8894.388797,7.345893,0.320,0.280,1.030,11.600,1.440,1.440
8894394817,8894.394817,7.351913,0.320,0.290,1.030,11.480,1.570,1.340
8894401039,8894.401039,7.358135,0.320,0.280,1.030,11.530,1.590,1.270
8894406824,8894.406824,7.363920,0.320,0.280,1.020,11.470,1.480,1.310
8894412799,8894.412799,7.369895,0.320,0.280,1.030,11.450,1.740,1.330
8894444905,8894.444905,7.402001,0.320,0.290,1.020,11.690,1.600,1.340
8894452032,8894.452032,7.409128,0.330,0.290,1.040,11.400,1.560,1.390
8894457865,8894.457865,7.414961,0.320,0.290,1.030,11.480,1.540,1.340
8894464860,8894.464860,7.421956,0.320,0.290,1.020,11.560,1.740,1.390
8894470870,8894.470870,7.427966,0.320,0.290,1.020,11.560,1.590,1.150
8894480015,8894.480015,7.437111,0.320,0.290,1.030,11.440,1.680,1.270
8894485841,8894.485841,7.442937,0.320,0.290,1.030,11.590,1.650,1.450
8894491864,8894.491864,7.448960,0.320,0.290,1.030,11.470,1.620,1.310
8894497827,8894.497827,7.454923,0.330,0.280,1.030,11.400,1.570,1.450
8894503857,8894.503857,7.460953,0.320,0.290,1.030,11.400,1.570,1.270
8894509861,8894.509861,7.466957,0.320,0.280,1.030,11.510,1.620,1.390
8894519862,8894.519862,7.476958,0.320,0.280,1.030,11.540,1.500,1.370
8894525853,8894.525853,7.482949,0.320,0.290,1.030,11.450,1.650,1.220
8894531858,8894.531858,7.488954,0.320,0.290,1.030,11.440,1.450,1.280
8894537882,8894.537882,7.494978,0.320,0.290,1.020,11.370,1.710,1.360
8894544125,8894.544125,7.501221,0.320,0.280,1.030,11.480,1.560,1.330
8894551363,8894.551363,7.508459,0.320,0.290,1.030,11.470,1.540,1.360
8894558987,8894.558987,7.516083,0.320,0.280,1.030,11.590,1.590,1.020
8894564853,8894.564853,7.521949,0.330,0.290,1.030,11.510,1.790,1.300
8894570853,8894.570853,7.527949,0.320,0.280,1.030,11.510,1.630,1.340
8894579034,8894.579034,7.536130,0.330,0.290,1.020,11.500,1.530,1.190
8894586528,8894.586528,7.543624,0.320,0.280,1.040,11.500,1.620,1.330
8894593012,8894.593012,7.550108,0.330,0.290,1.040,11.570,1.600,1.400
8894599230,8894.599230,7.556326,0.320,0.280,1.020,11.510,1.470,1.330
8894605871,8894.605871,7.562967,0.320,0.290,1.020,11.540,1.540,1.240
8894611822,8894.611822,7.568918,0.310,0.280,1.030,11.530,1.730,1.310
8894620195,8894.620195,7.577291,0.320,0.280,1.040,11.480,1.530,1.450
8894627603,8894.627603,7.584699,0.320,0.290,1.020,11.330,1.660,1.210
8894634869,8894.634869,7.591965,0.320,0.290,1.020,11.510,1.440,1.310
8894641092,8894.641092,7.598188,0.320,0.290,1.020,11.530,1.540,1.220
8894648019,8894.648019,7.605115,0.320,0.290,1.030,11.450,1.500,1.330
8894655094,8894.655094,7.612190,0.320,0.290,1.020,11.530,1.540,1.270
8894662230,8894.662230,7.619326,0.320,0.290,1.020,11.470,1.600,1.300
8894668868,8894.668868,7.625964,0.320,0.280,1.030,11.510,1.630,1.310
8894674861,8894.674861,7.631957,0.320,0.280,1.030,11.470,1.680,1.340
8894680862,8894.680862,7.637958,0.330,0.280,1.020,11.540,1.620,1.420
8894687763,8894.687763,7.644859,0.320,0.290,1.020,11.540,1.570,1.220
8894693882,8894.693882,7.650978,0.320,0.290,1.030,11.480,1.590,1.340
8894701041,8894.701041,7.658137,0.320,0.290,1.030,11.510,1.530,1.300
8894709906,8894.709906,7.667002,0.320,0.290,1.030,11.590,1.790,1.150
8894717871,8894.717871,7.674967,0.320,0.290,1.030,11.560,1.630,1.390
8894723833,8894.723833,7.680929,0.310,0.280,1.030,11.500,1.730,1.340
8894729893,8894.729893,7.686989,0.320,0.290,1.030,11.500,1.530,1.270
8894735860,8894.735860,7.692956,0.320,0.290,1.020,11.560,1.470,1.340
8894741944,8894.741944,7.699040,0.330,0.280,1.020,11.770,1.570,1.180
8894750173,8894.750173,7.707269,0.320,0.290,1.020,11.390,1.620,1.330
8894756887,8894.756887,7.713983,0.320,0.290,1.030,11.560,1.530,1.390
8894764882,8894.764882,7.721978,0.320,0.290,1.030,11.620,1.630,1.440
8894772565,8894.772565,7.729661,0.330,0.290,1.040,11.450,1.540,1.310
8894778948,8894.778948,7.736044,0.320,0.290,1.030,11.480,1.600,1.360
8894788254,8894.788254,7.745350,0.320,0.290,1.030,11.440,1.540,1.100
8894794857,8894.794857,7.751953,0.320,0.280,1.030,11.510,1.440,1.150
8894800823,8894.800823,7.757919,0.320,0.290,1.030,11.590,1.660,1.190
8894808890,8894.808890,7.765986,0.330,0.290,1.030,11.440,1.630,1.360
8894814863,8894.814863,7.771959,0.320,0.290,1.030,11.500,1.370,1.370
8894821482,8894.821482,7.778578,0.320,0.280,1.020,11.560,1.620,1.280
8894828909,8894.828909,7.786005,0.320,0.290,1.020,11.540,1.660,1.390
8894834865,8894.834865,7.791961,0.320,0.280,1.030,11.600,1.570,1.330
8894840870,8894.840870,7.797966,0.320,0.280,1.040,11.690,1.710,1.210
8894846875,8894.846875,7.803971,0.320,0.280,1.020,11.560,1.590,1.450
8894853925,8894.853925,7.811021,0.310,0.280,1.030,11.570,1.510,1.310
8894861357,8894.861357,7.818453,0.320,0.290,1.020,11.440,1.400,1.300
8894867919,8894.867919,7.825015,0.320,0.290,1.030,11.630,1.480,1.270
8894873843,8894.873843,7.830939,0.330,0.280,1.030,11.400,1.630,1.400
8894879859,8894.879859,7.836955,0.320,0.290,1.020,11.450,1.660,1.250
8894887366,8894.887366,7.844462,0.320,0.280,1.020,11.500,1.660,1.440
8894893879,8894.893879,7.850975,0.320,0.280,1.030,11.300,1.540,1.240
8894899824,8894.899824,7.856920,0.320,0.290,1.030,11.500,1.560,1.370
8894906697,8894.906697,7.863793,0.320,0.290,1.020,11.440,1.510,1.300
8894913000,8894.913000,7.870096,0.320,0.290,1.030,11.470,1.500,1.310
8894919924,8894.919924,7.877020,0.320,0.290,1.020,11.620,1.690,1.370
8894928418,8894.928418,7.885514,0.320,0.290,1.030,11.440,1.540,1.220
8894934853,8894.934853,7.891949,0.320,0.290,1.030,11.450,1.590,1.370
8894940864,8894.940864,7.897960,0.330,0.290,1.020,11.360,1.680,1.210
8894947124,8894.947124,7.904220,0.320,0.290,1.030,11.500,1.620,1.300
8894953911,8894.953911,7.911007,0.330,0.290,1.030,11.540,1.600,1.340
8894960740,8894.960740,7.917836,0.320,0.290,1.020,11.630,1.570,1.310
8894971028,8894.971028,7.928124,0.320,0.280,1.030,11.600,1.470,1.340
8894977870,8894.977870,7.934966,0.320,0.280,1.020,11.590,1.620,1.240
8894983858,8894.983858,7.940954,0.310,0.290,1.020,11.630,1.510,1.280
8894989842,8894.989842,7.946938,0.320,0.290,1.030,11.470,1.400,1.240
8894996862,8894.996862,7.953958,0.330,0.290,1.020,11.420,1.570,1.280
8895002898,8895.002898,7.959994,0.320,0.290,1.030,11.540,1.480,1.340
8895012246,8895.012246,7.969342,0.330,0.280,1.040,11.470,1.510,1.360
8895020875,8895.020875,7.977971,0.320,0.280,1.030,11.540,1.740,1.270
8895026852,8895.026852,7.983948,0.320,0.290,1.030,11.570,1.400,1.280
8895033031,8895.033031,7.990127,0.320,0.280,1.030,11.500,1.540,1.300
8895040172,8895.040172,7.997268,0.320,0.290,1.030,11.400,1.650,1.280
8895046986,8895.046986,8.004082,0.330,0.290,1.020,11.270,1.770,1.360
8895054917,8895.054917,8.012013,0.320,0.280,1.020,11.530,1.600,1.390
8895061883,8895.061883,8.018979,0.320,0.280,1.020,11.560,1.730,1.360
8895069859,8895.069859,8.026955,0.330,0.290,1.020,11.360,1.650,1.420
8895075848,8895.075848,8.032944,0.320,0.280,1.030,11.540,1.760,1.160
8895082870,8895.082870,8.039966,0.320,0.290,1.030,11.620,1.740,1.420
8895089335,8895.089335,8.046431,0.320,0.280,1.030,11.440,1.650,1.300
8895095845,8895.095845,8.052941,0.320,0.280,1.030,11.530,1.590,1.310
8895101865,8895.101865,8.058961,0.320,0.280,1.020,11.470,1.480,1.190
8895107795,8895.107795,8.064891,0.320,0.290,1.030,11.440,1.570,1.400
8895117114,8895.117114,8.074210,0.330,0.290,1.030,11.420,1.560,1.250
8895123122,8895.123122,8.080218,0.310,0.290,1.030,11.440,1.370,1.150
8895128856,8895.128856,8.085952,0.320,0.290,1.030,11.590,1.440,1.340
8895135426,8895.135426,8.092522,0.320,0.290,1.030,11.560,1.530,1.310
8895141977,8895.141977,8.099073,0.320,0.280,1.020,11.400,1.500,1.240
8895149172,8895.149172,8.106268,0.330,0.290,1.030,11.530,1.690,1.300
8895158239,8895.158239,8.115335,0.320,0.280,1.030,11.510,1.400,1.360
8895165539,8895.165539,8.122635,0.320,0.290,1.020,11.420,1.530,1.450
8895171864,8895.171864,8.128960,0.320,0.290,1.030,11.530,1.590,1.240
8895177875,8895.177875,8.134971,0.330,0.290,1.040,11.560,1.500,1.300
8895184138,8895.184138,8.141234,0.320,0.290,1.030,11.390,1.500,1.360
8895192866,8895.192866,8.149962,0.320,0.290,1.020,11.470,1.590,1.390
8895198860,8895.198860,8.155956,0.320,0.280,1.020,11.500,1.620,1.250
8895204810,8895.204810,8.161906,0.330,0.280,1.020,11.620,1.570,1.340
8895210798,8895.210798,8.167894,0.330,0.290,1.030,11.530,1.630,1.330
8895216817,8895.216817,8.173913,0.320,0.280,1.020,11.530,1.530,1.270
8895222816,8895.222816,8.179912,0.320,0.290,1.030,11.600,1.590,1.190
8895228796,8895.228796,8.185892,0.330,0.280,1.020,11.540,1.560,1.500
8895239872,8895.239872,8.196968,0.320,0.280,1.030,11.540,1.510,1.220
8895246064,8895.246064,8.203160,0.320,0.290,1.040,11.360,1.680,1.280
8895252873,8895.252873,8.209969,0.320,0.290,1.030,11.590,1.560,1.160
8895259608,8895.259608,8.216704,0.320,0.280,1.020,11.470,1.570,1.250
8895265890,8895.265890,8.222986,0.320,0.280,1.030,11.470,1.570,1.340
8895275198,8895.275198,8.232294,0.320,0.290,1.040,11.540,1.570,1.310
8895281862,8895.281862,8.238958,0.330,0.280,1.030,11.480,1.570,1.360
8895287925,8895.287925,8.245021,0.320,0.290,1.030,11.480,1.600,1.300
8895293859,8895.293859,8.250955,0.320,0.290,1.020,11.560,1.530,1.370
8895299872,8895.299872,8.256968,0.320,0.290,1.030,11.480,1.570,1.450
8895305949,8895.305949,8.263045,0.320,0.280,1.020,11.680,1.510,1.250
8895312835,8895.312835,8.269931,0.330,0.280,1.030,11.390,1.620,1.340
8895319402,8895.319402,8.276498,0.330,0.290,1.030,11.590,1.570,1.240
8895326482,8895.326482,8.283578,0.320,0.280,1.030,11.510,1.630,1.330
8895332832,8895.332832,8.289928,0.320,0.280,1.020,11.540,1.600,1.370
8895340866,8895.340866,8.297962,0.320,0.290,1.030,11.600,1.450,1.270
8895346864,8895.346864,8.303960,0.320,0.290,1.020,11.570,1.540,1.370
8895353041,8895.353041,8.310137,0.320,0.280,1.030,11.370,1.600,1.220
8895360235,8895.360235,8.317331,0.320,0.290,1.030,11.310,1.560,1.100
8895367904,8895.367904,8.325000,0.320,0.280,1.020,11.560,1.500,1.360
8895375349,8895.375349,8.332445,0.320,0.290,1.030,11.450,1.660,1.270
8895381847,8895.381847,8.338943,0.320,0.290,1.020,11.540,1.680,1.390
8895389239,8895.389239,8.346335,0.320,0.280,1.020,11.510,1.690,1.330
8895395859,8895.395859,8.352955,0.320,0.290,1.020,11.360,1.530,1.400
8895401964,8895.401964,8.359060,0.320,0.280,1.030,11.600,1.600,1.310
8895407941,8895.407941,8.365037,0.320,0.280,1.030,11.560,1.530,1.220
8895415827,8895.415827,8.372923,0.320,0.290,1.020,11.470,1.480,1.330
8895422862,8895.422862,8.379958,0.320,0.290,1.020,11.450,1.570,1.280
8895429844,8895.429844,8.386940,0.320,0.290,1.030,11.570,1.440,1.220
8895438926,8895.438926,8.396022,0.330,0.280,1.020,11.470,1.480,1.360
8895444844,8895.444844,8.401940,0.320,0.280,1.020,11.600,1.530,1.330
8895450965,8895.450965,8.408061,0.320,0.280,1.030,11.590,1.680,1.370
8895456855,8895.456855,8.413951,0.320,0.290,1.030,11.530,1.570,1.370
8895463937,8895.463937,8.421033,0.320,0.280,1.020,11.450,1.620,1.360
8895471755,8895.471755,8.428851,0.320,0.290,1.030,11.450,1.650,1.220
8895480271,8895.480271,8.437367,0.320,0.280,1.020,11.470,1.680,1.250
8895487493,8895.487493,8.444589,0.320,0.290,1.030,11.480,1.600,1.250
8895493859,8895.493859,8.450955,0.320,0.290,1.030,11.570,1.600,1.220
8895500874,8895.500874,8.457970,0.320,0.290,1.030,11.470,1.570,1.330
8895507877,8895.507877,8.464973,0.320,0.290,1.020,11.600,1.540,1.450
8895513960,8895.513960,8.471056,0.320,0.290,1.020,11.440,1.570,1.310
8895520246,8895.520246,8.477342,0.330,0.280,1.020,11.540,1.540,1.300
8895526859,8895.526859,8.483955,0.320,0.280,1.030,11.420,1.740,1.360
8895535015,8895.535015,8.492111,0.320,0.290,1.030,11.480,1.480,1.280
8895541867,8895.541867,8.498963,0.330,0.290,1.030,11.500,1.660,1.180
8895547856,8895.547856,8.504952,0.320,0.290,1.030,11.400,1.530,1.310
8895553858,8895.553858,8.510954,0.320,0.280,1.030,11.620,1.760,1.330
8895559924,8895.559924,8.517020,0.320,0.290,1.020,11.500,1.570,1.370
8895566676,8895.566676,8.523772,0.320,0.290,1.030,11.450,1.690,1.250
8895574690,8895.574690,8.531786,0.320,0.280,1.020,11.560,1.510,1.390
8895581853,8895.581853,8.538949,0.320,0.280,1.020,11.530,1.600,1.310
8895587854,8895.587854,8.544950,0.320,0.290,1.030,11.420,1.660,1.390
8895595994,8895.595994,8.553090,0.320,0.280,1.030,11.480,1.400,1.330
8895602861,8895.602861,8.559957,0.320,0.280,1.030,11.630,1.650,1.190
8895611022,8895.611022,8.568118,0.320,0.290,1.030,11.530,1.590,1.220
8895616827,8895.616827,8.573923,0.320,0.280,1.030,11.590,1.730,1.390
8895622858,8895.622858,8.579954,0.320,0.290,1.030,11.450,1.600,1.250
8895629849,8895.629849,8.586945,0.320,0.280,1.030,11.620,1.510,1.390
8895635814,8895.635814,8.592910,0.320,0.280,1.020,11.500,1.590,1.400
8895643277,8895.643277,8.600373,0.320,0.290,1.020,11.400,1.600,1.250
8895649868,8895.649868,8.606964,0.320,0.290,1.020,11.510,1.400,1.340
8895656010,8895.656010,8.613106,0.320,0.290,1.020,11.450,1.710,1.360
8895661939,8895.661939,8.619035,0.330,0.290,1.020,11.560,1.510,1.340
8895669166,8895.669166,8.626262,0.330,0.280,1.020,11.530,1.570,1.080
8895676280,8895.676280,8.633376,0.320,0.280,1.020,11.540,1.560,1.190
8895683975,8895.683975,8.641071,0.320,0.290,1.030,11.600,1.510,1.450
8895689981,8895.689981,8.647077,0.330,0.290,1.030,11.570,1.450,1.300
8895697067,8895.697067,8.654163,0.320,0.280,1.030,11.570,1.570,1.370
8895702839,8895.702839,8.659935,0.320,0.290,1.020,11.620,1.710,1.330
8895709585,8895.709585,8.666681,0.320,0.280,1.030,11.420,1.630,1.220
8895716066,8895.716066,8.673162,0.320,0.280,1.030,11.620,1.440,1.330
8895721816,8895.721816,8.678912,0.320,0.290,1.030,11.420,1.530,1.310
8895728644,8895.728644,8.685740,0.320,0.280,1.030,11.540,1.540,1.220
8895734980,8895.734980,8.692076,0.320,0.290,1.020,11.360,1.530,1.330
8895742028,8895.742028,8.699124,0.320,0.290,1.030,11.540,1.600,1.150
8895747847,8895.747847,8.704943,0.320,0.280,1.030,11.510,1.600,1.340
8895754857,8895.754857,8.711953,0.330,0.290,1.040,11.510,1.480,1.330
8895762995,8895.762995,8.720091,0.320,0.280,1.020,11.560,1.570,1.180
8895769888,8895.769888,8.726984,0.320,0.290,1.030,11.510,1.650,1.340
8895776027,8895.776027,8.733123,0.310,0.300,1.030,11.500,1.590,1.400
8895781871,8895.781871,8.738967,0.320,0.290,1.030,11.590,1.440,1.420
8895787866,8895.787866,8.744962,0.320,0.290,1.030,11.360,1.590,1.270
8895796809,8895.796809,8.753905,0.330,0.290,1.030,11.370,1.570,1.300
8895802893,8895.802893,8.759989,0.320,0.290,1.030,11.560,1.530,1.310
8895809078,8895.809078,8.766174,0.320,0.280,1.020,11.630,1.680,1.420
8895814841,8895.814841,8.771937,0.320,0.290,1.020,11.560,1.590,1.160
8895820807,8895.820807,8.777903,0.320,0.290,1.020,11.600,1.570,1.330
8895826797,8895.826797,8.783893,0.330,0.280,1.020,11.450,1.500,1.440
8895832806,8895.832806,8.789902,0.330,0.290,1.030,11.470,1.450,1.370
8895838811,8895.838811,8.795907,0.320,0.290,1.020,11.630,1.480,1.330
8895844790,8895.844790,8.801886,0.320,0.280,1.020,11.500,1.760,1.250
8895948903,8895.948903,8.905999,0.320,0.290,1.020,11.680,1.500,1.370
8895954857,8895.954857,8.911953,0.330,0.290,1.030,11.570,1.600,1.310
8895960858,8895.960858,8.917954,0.320,0.290,1.030,11.440,1.470,1.300
8895966834,8895.966834,8.923930,0.320,0.290,1.020,11.560,1.530,1.300
8895973893,8895.973893,8.930989,0.320,0.290,1.030,11.570,1.590,1.270
8895981204,8895.981204,8.938300,0.320,0.290,1.040,11.450,1.560,1.300
8895989395,8895.989395,8.946491,0.320,0.280,1.030,11.440,1.710,1.280
8895995937,8895.995937,8.953033,0.320,0.290,1.030,11.510,1.400,1.180
8896002859,8896.002859,8.959955,0.320,0.290,1.030,11.480,1.590,1.440
8896009765,8896.009765,8.966861,0.320,0.280,1.030,11.510,1.680,1.340
8896015985,8896.015985,8.973081,0.330,0.280,1.020,11.470,1.450,1.280
8896022966,8896.022966,8.980062,0.320,0.280,1.020,11.570,1.660,1.160
8896028867,8896.028867,8.985963,0.320,0.290,1.020,11.540,1.500,1.370
8896034868,8896.034868,8.991964,0.320,0.290,1.030,11.510,1.650,1.250
8896040839,8896.040839,8.997935,0.320,0.280,1.040,11.440,1.620,1.330
8896048374,8896.048374,9.005470,0.320,0.290,1.020,11.560,1.420,1.390
8896055857,8896.055857,9.012953,0.320,0.290,1.020,11.470,1.740,1.280
8896061846,8896.061846,9.018942,0.330,0.280,1.030,11.440,1.710,1.390
8896067860,8896.067860,9.024956,0.320,0.290,1.030,11.420,1.590,1.280
8896074130,8896.074130,9.031226,0.320,0.290,1.020,11.590,1.630,1.280
8896080906,8896.080906,9.038002,0.320,0.280,1.020,11.420,1.570,1.340
8896089881,8896.089881,9.046977,0.320,0.280,1.020,11.480,1.560,1.470
8896095842,8896.095842,9.052938,0.320,0.280,1.030,11.480,1.680,1.340
8896101856,8896.101856,9.058952,0.320,0.280,1.030,11.540,1.600,1.360
8896108865,8896.108865,9.065961,0.320,0.290,1.030,11.500,1.570,1.340
8896114911,8896.114911,9.072007,0.320,0.290,1.030,11.530,1.690,1.190
8896120856,8896.120856,9.077952,0.330,0.290,1.030,11.540,1.530,1.330
8896126928,8896.126928,9.084024,0.320,0.290,1.030,11.500,1.530,1.480
8896153869,8896.153869,9.110965,0.320,0.290,1.020,11.470,1.620,1.280
8896160107,8896.160107,9.117203,0.320,0.280,1.020,11.540,1.600,1.480
8896165863,8896.165863,9.122959,0.320,0.280,1.020,11.790,1.740,1.400
8896171864,8896.171864,9.128960,0.330,0.290,1.030,11.590,1.690,1.160
8896177901,8896.177901,9.134997,0.320,0.280,1.030,11.480,1.530,1.310
8896185212,8896.185212,9.142308,0.330,0.290,1.020,11.560,1.510,1.370
8896192124,8896.192124,9.149220,0.320,0.290,1.040,11.660,1.570,1.300
8896198855,8896.198855,9.155951,0.320,0.290,1.030,11.420,1.650,1.340
8896206059,8896.206059,9.163155,0.320,0.280,1.020,11.400,1.480,1.270
8896212865,8896.212865,9.169961,0.330,0.290,1.030,11.510,1.650,1.300
8896219649,8896.219649,9.176745,0.320,0.280,1.030,11.530,1.540,1.390
8896226032,8896.226032,9.183128,0.330,0.280,1.030,11.480,1.600,1.280
8896231854,8896.231854,9.188950,0.320,0.290,1.020,11.540,1.660,1.250
8896238022,8896.238022,9.195118,0.320,0.280,1.020,11.680,1.710,1.180
8896244046,8896.244046,9.201142,0.320,0.290,1.030,11.470,1.400,1.340
8896250863,8896.250863,9.207959,0.320,0.280,1.030,11.530,1.760,1.330
8896256872,8896.256872,9.213968,0.320,0.290,1.030,11.420,1.560,1.270
8896263438,8896.263438,9.220534,0.320,0.290,1.030,11.570,1.500,1.240
8896270093,8896.270093,9.227189,0.320,0.280,1.030,11.400,1.730,1.310
8896275819,8896.275819,9.232915,0.320,0.280,1.030,11.680,1.560,1.220
8896281886,8896.281886,9.238982,0.320,0.280,1.020,11.530,1.660,1.250
8896288914,8896.288914,9.246010,0.320,0.290,1.020,11.470,1.560,1.340
8896297966,8896.297966,9.255062,0.320,0.290,1.030,11.400,1.560,1.310
8896304874,8896.304874,9.261970,0.320,0.290,1.030,11.480,1.500,1.300
8896312076,8896.312076,9.269172,0.320,0.290,1.030,11.590,1.510,1.440
8896318848,8896.318848,9.275944,0.320,0.290,1.030,11.710,1.590,1.250
8896325860,8896.325860,9.282956,0.320,0.280,1.020,11.530,1.650,1.330
8896332838,8896.332838,9.289934,0.320,0.290,1.020,11.600,1.510,1.390
8896339652,8896.339652,9.296748,0.320,0.290,1.020,11.510,1.630,1.340
8896345944,8896.345944,9.303040,0.320,0.290,1.030,11.480,1.510,1.470
8896351801,8896.351801,9.308897,0.320,0.290,1.040,11.530,1.450,1.370
8896360097,8896.360097,9.317193,0.320,0.290,1.030,11.630,1.440,1.180
8896367870,8896.367870,9.324966,0.320,0.280,1.030,11.450,1.510,1.360
8896373949,8896.373949,9.331045,0.320,0.290,1.030,11.420,1.620,1.210
8896379877,8896.379877,9.336973,0.320,0.280,1.040,11.620,1.660,1.240
8896385850,8896.385850,9.342946,0.330,0.290,1.030,11.500,1.570,1.300
8896392885,8896.392885,9.349981,0.320,0.290,1.030,11.400,1.620,1.210
8896399883,8896.399883,9.356979,0.320,0.290,1.030,11.660,1.630,1.300
8896406029,8896.406029,9.363125,0.320,0.290,1.030,11.420,1.710,1.370
8896411924,8896.411924,9.369020,0.330,0.280,1.030,11.570,1.500,1.300
8896417823,8896.417823,9.374919,0.320,0.290,1.030,11.480,1.690,1.270
8896423829,8896.423829,9.380925,0.330,0.280,1.040,11.530,1.570,1.310
8896458870,8896.458870,9.415966,0.330,0.290,1.030,11.420,1.570,1.300
8896464849,8896.464849,9.421945,0.330,0.280,1.020,11.560,1.480,1.340
8896470862,8896.470862,9.427958,0.320,0.290,1.020,11.710,1.590,1.370
8896476825,8896.476825,9.433921,0.320,0.280,1.030,11.570,1.570,1.390
8896483167,8896.483167,9.440263,0.320,0.290,1.020,11.650,1.660,1.340
8896489234,8896.489234,9.446330,0.330,0.280,1.030,11.500,1.620,1.210
8896494865,8896.494865,9.451961,0.320,0.280,1.030,11.500,1.600,1.370
8896501084,8896.501084,9.458180,0.320,0.290,1.020,11.540,1.620,1.480
8896506923,8896.506923,9.464019,0.320,0.290,1.030,11.530,1.660,1.220
8896513858,8896.513858,9.470954,0.330,0.280,1.020,11.500,1.590,1.270
8896529866,8896.529866,9.486962,0.320,0.290,1.020,11.660,1.680,1.250
8896535824,8896.535824,9.492920,0.320,0.280,1.030,11.600,1.680,1.330
8896566876,8896.566876,9.523972,0.320,0.290,1.030,11.440,1.600,1.390
8896572849,8896.572849,9.529945,0.320,0.290,1.020,11.340,1.590,1.390
8896578864,8896.578864,9.535960,0.330,0.290,1.030,11.560,1.590,1.340
8896584854,8896.584854,9.541950,0.320,0.280,1.020,11.590,1.560,1.180
8896592218,8896.592218,9.549314,0.320,0.290,1.020,11.500,1.500,1.220
8896598752,8896.598752,9.555848,0.320,0.290,1.030,11.630,1.530,1.190
8896607965,8896.607965,9.565061,0.320,0.280,1.030,11.570,1.620,1.330
8896614875,8896.614875,9.571971,0.330,0.280,1.030,11.620,1.530,1.310
8896621888,8896.621888,9.578984,0.320,0.290,1.040,11.500,1.680,1.100
8896627844,8896.627844,9.584940,0.320,0.290,1.030,11.420,1.510,1.190
8896633896,8896.633896,9.590992,0.320,0.290,1.020,11.420,1.560,1.300
8896640854,8896.640854,9.597950,0.320,0.290,1.020,11.570,1.540,1.250
8896646857,8896.646857,9.603953,0.320,0.280,1.030,11.540,1.650,1.330
8896653914,8896.653914,9.611010,0.320,0.290,1.030,11.530,1.600,1.370
8896661125,8896.661125,9.618221,0.320,0.290,1.030,11.370,1.570,1.220
8896668868,8896.668868,9.625964,0.330,0.280,1.030,11.560,1.570,1.420
8896674859,8896.674859,9.631955,0.320,0.280,1.030,11.540,1.570,1.310
8896681621,8896.681621,9.638717,0.320,0.290,1.030,11.510,1.730,1.360
8896688104,8896.688104,9.645200,0.320,0.280,1.030,11.370,1.630,1.360
8896695873,8896.695873,9.652969,0.320,0.290,1.030,11.570,1.570,1.210
8896704895,8896.704895,9.661991,0.320,0.290,1.030,11.600,1.620,1.160
8896711962,8896.711962,9.669058,0.320,0.290,1.030,11.540,1.560,1.220
8896718877,8896.718877,9.675973,0.320,0.280,1.020,11.560,1.400,1.370
8896724938,8896.724938,9.682034,0.320,0.280,1.020,11.540,1.530,1.370
8896730863,8896.730863,9.687959,0.320,0.280,1.030,11.650,1.570,1.390
8896737474,8896.737474,9.694570,0.320,0.290,1.030,11.570,1.440,1.240
8896743839,8896.743839,9.700935,0.320,0.280,1.030,11.530,1.480,1.240
8896752672,8896.752672,9.709768,0.320,0.290,1.030,11.570,1.500,1.280
8896759877,8896.759877,9.716973,0.320,0.290,1.030,11.560,1.560,1.280
8896765856,8896.765856,9.722952,0.320,0.290,1.020,11.570,1.500,1.480
8896771866,8896.771866,9.728962,0.320,0.290,1.020,11.440,1.740,1.280
8896779124,8896.779124,9.736220,0.320,0.290,1.020,11.540,1.540,1.340
8896785972,8896.785972,9.743068,0.320,0.290,1.020,11.660,1.770,1.210
8896795045,8896.795045,9.752141,0.330,0.280,1.020,11.420,1.570,1.280
8896801884,8896.801884,9.758980,0.320,0.280,1.030,11.510,1.630,1.210
8896807943,8896.807943,9.765039,0.320,0.290,1.030,11.500,1.600,1.220
8896814054,8896.814054,9.771150,0.320,0.280,1.020,11.570,1.630,1.310
8896820871,8896.820871,9.777967,0.320,0.290,1.030,11.500,1.650,1.310
8896827078,8896.827078,9.784174,0.330,0.290,1.030,11.540,1.630,1.400
8896832835,8896.832835,9.789931,0.320,0.280,1.020,11.570,1.420,1.300
8896838846,8896.838846,9.795942,0.320,0.280,1.030,11.540,1.630,1.450
8896844822,8896.844822,9.801918,0.310,0.290,1.030,11.570,1.590,1.160
8896850799,8896.850799,9.807895,0.320,0.290,1.030,11.560,1.510,1.240
8896861860,8896.861860,9.818956,0.330,0.290,1.030,11.450,1.480,1.250
8896867845,8896.867845,9.824941,0.320,0.290,1.020,11.500,1.480,1.300
8896874055,8896.874055,9.831151,0.330,0.290,1.020,11.540,1.480,1.360
8896879863,8896.879863,9.836959,0.320,0.280,1.030,11.440,1.570,1.250
8896885832,8896.885832,9.842928,0.310,0.280,1.020,11.480,1.530,1.450
8896893505,8896.893505,9.850601,0.330,0.290,1.030,11.630,1.530,1.210
8896899907,8896.899907,9.857003,0.320,0.290,1.030,11.360,1.760,1.340
8896907861,8896.907861,9.864957,0.320,0.280,1.030,11.650,1.680,1.280
8896913863,8896.913863,9.870959,0.320,0.290,1.030,11.590,1.650,1.280
8896920857,8896.920857,9.877953,0.330,0.290,1.020,11.770,1.630,1.250
8896926882,8896.926882,9.883978,0.320,0.280,1.030,11.590,1.570,1.440
8896933835,8896.933835,9.890931,0.320,0.280,1.030,11.680,1.530,1.310
8896939791,8896.939791,9.896887,0.320,0.290,1.030,11.470,1.540,1.310
8896945967,8896.945967,9.903063,0.320,0.290,1.020,11.400,1.530,1.390
8896951803,8896.951803,9.908899,0.320,0.290,1.030,11.510,1.650,1.510
8896957853,8896.957853,9.914949,0.330,0.290,1.030,11.480,1.850,1.340
8896964397,8896.964397,9.921493,0.320,0.290,1.030,11.510,1.540,1.150
8896973875,8896.973875,9.930971,0.320,0.290,1.030,11.570,1.540,1.240
8896981256,8896.981256,9.938352,0.320,0.290,1.030,11.600,1.510,1.340
8896987834,8896.987834,9.944930,0.330,0.290,1.030,11.590,1.570,1.250
8896994428,8896.994428,9.951524,0.320,0.290,1.030,11.530,1.390,1.370
8897002624,8897.002624,9.959720,0.320,0.280,1.030,11.540,1.530,1.250
8897009906,8897.009906,9.967002,0.320,0.290,1.030,11.530,1.650,1.450
8897017184,8897.017184,9.974280,0.320,0.280,1.030,11.540,1.530,1.390
8897024868,8897.024868,9.981964,0.320,0.280,1.020,11.540,1.600,1.250
8897031981,8897.031981,9.989077,0.320,0.280,1.030,11.560,1.590,1.330
8897037850,8897.037850,9.994946,0.320,0.280,1.020,11.450,1.600,1.360
8897044668,8897.044668,10.001764,0.320,0.290,1.030,11.420,1.590,1.340
8897050979,8897.050979,10.008075,0.320,0.280,1.030,11.480,1.650,1.270
8897056874,8897.056874,10.013970,0.320,0.280,1.020,11.500,1.590,1.160
8897062927,8897.062927,10.020023,0.320,0.280,1.030,11.480,1.570,1.340
8897068846,8897.068846,10.025942,0.320,0.290,1.020,11.630,1.450,1.240
8897075939,8897.075939,10.033035,0.320,0.290,1.030,11.650,1.570,1.390
8897081862,8897.081862,10.038958,0.320,0.290,1.020,11.510,1.510,1.280
8897087857,8897.087857,10.044953,0.320,0.290,1.040,11.600,1.480,1.210
8897093858,8897.093858,10.050954,0.330,0.290,1.030,11.500,1.450,1.280
8897100881,8897.100881,10.057977,0.320,0.290,1.020,11.570,1.540,1.270
8897108023,8897.108023,10.065119,0.320,0.290,1.030,11.370,1.590,1.370
8897116605,8897.116605,10.073701,0.320,0.290,1.030,11.540,1.650,1.180
8897123878,8897.123878,10.080974,0.320,0.290,1.030,11.570,1.570,1.310
8897131034,8897.131034,10.088130,0.320,0.280,1.030,11.570,1.570,1.210
8897136873,8897.136873,10.093969,0.320,0.290,1.020,11.540,1.560,1.340
8897143976,8897.143976,10.101072,0.320,0.290,1.030,11.470,1.530,1.440
8897152662,8897.152662,10.109758,0.320,0.290,1.030,11.540,1.420,1.250
8897158833,8897.158833,10.115929,0.320,0.280,1.020,11.450,1.620,1.400
8897164981,8897.164981,10.122077,0.330,0.280,1.030,11.400,1.560,1.280
8897171853,8897.171853,10.128949,0.320,0.290,1.030,11.370,1.600,1.370
8897179075,8897.179075,10.136171,0.320,0.290,1.030,11.510,1.560,1.340
8897184987,8897.184987,10.142083,0.320,0.280,1.030,11.570,1.530,1.370
8897190857,8897.190857,10.147953,0.320,0.290,1.030,11.470,1.620,1.270
8897197864,8897.197864,10.154960,0.320,0.290,1.030,11.540,1.530,1.360
8897204899,8897.204899,10.161995,0.320,0.280,1.020,11.590,1.620,1.250
8897213130,8897.213130,10.170226,0.320,0.290,1.030,11.570,1.590,1.250
8897220540,8897.220540,10.177636,0.330,0.290,1.030,11.440,1.690,1.400
8897226838,8897.226838,10.183934,0.320,0.290,1.030,11.570,1.680,1.220
8897233453,8897.233453,10.190549,0.320,0.290,1.030,11.450,1.740,1.310
8897240796,8897.240796,10.197892,0.320,0.290,1.030,11.510,1.620,1.240
8897246878,8897.246878,10.203974,0.320,0.280,1.030,11.540,1.630,1.240
8897252849,8897.252849,10.209945,0.320,0.280,1.020,11.420,1.500,1.270
8897258830,8897.258830,10.215926,0.320,0.290,1.040,11.560,1.630,1.310
8897265388,8897.265388,10.222484,0.320,0.290,1.030,11.630,1.530,1.250
8897276057,8897.276057,10.233153,0.320,0.290,1.020,11.420,1.680,1.340
8897282274,8897.282274,10.239370,0.320,0.280,1.030,11.440,1.600,1.340
8897288854,8897.288854,10.245950,0.330,0.280,1.030,11.570,1.710,1.280
8897294859,8897.294859,10.251955,0.320,0.290,1.030,11.500,1.690,1.340
8897300870,8897.300870,10.257966,0.320,0.290,1.030,11.630,1.600,1.400
8897308246,8897.308246,10.265342,0.320,0.290,1.030,11.400,1.620,1.360
8897313864,8897.313864,10.270960,0.320,0.280,1.030,11.540,1.660,1.300
8897320856,8897.320856,10.277952,0.320,0.290,1.030,11.590,1.680,1.360
8897328870,8897.328870,10.285966,0.320,0.280,1.030,11.570,1.660,1.220
8897336417,8897.336417,10.293513,0.320,0.280,1.030,11.330,1.420,1.360
8897342959,8897.342959,10.300055,0.320,0.280,1.030,11.510,1.510,1.310
8897348892,8897.348892,10.305988,0.320,0.290,1.020,11.450,1.650,1.340
8897354851,8897.354851,10.311947,0.330,0.280,1.030,11.400,1.710,1.210
8897360888,8897.360888,10.317984,0.320,0.290,1.030,11.540,1.590,1.240
8897367022,8897.367022,10.324118,0.320,0.290,1.030,11.570,1.730,1.390
8897375146,8897.375146,10.332242,0.320,0.290,1.020,11.420,1.480,1.360
8897382864,8897.382864,10.339960,0.320,0.280,1.020,11.370,1.480,1.440
8897388835,8897.388835,10.345931,0.320,0.280,1.030,11.570,1.680,1.310
8897395985,8897.395985,10.353081,0.320,0.280,1.030,11.600,1.590,1.180
8897403106,8897.403106,10.360202,0.330,0.280,1.030,11.540,1.660,1.210
8897410275,8897.410275,10.367371,0.330,0.290,1.030,11.540,1.420,1.370
8897417972,8897.417972,10.375068,0.330,0.290,1.030,11.540,1.540,1.390
8897424863,8897.424863,10.381959,0.320,0.290,1.030,11.560,1.600,1.340
8897430862,8897.430862,10.387958,0.320,0.280,1.020,11.600,1.650,1.330
8897437870,8897.437870,10.394966,0.320,0.290,1.030,11.560,1.620,1.340
8897443956,8897.443956,10.401052,0.320,0.290,1.030,11.450,1.690,1.310
8897449836,8897.449836,10.406932,0.330,0.280,1.030,11.450,1.650,1.390
8897455988,8897.455988,10.413084,0.320,0.290,1.030,11.470,1.630,1.270
8897461828,8897.461828,10.418924,0.320,0.280,1.030,11.310,1.680,1.400
8897468218,8897.468218,10.425314,0.320,0.290,1.020,11.560,1.590,1.420
8897474847,8897.474847,10.431943,0.320,0.280,1.030,11.540,1.760,1.180
8897483540,8897.483540,10.440636,0.330,0.290,1.020,11.570,1.540,1.270
8897490170,8897.490170,10.447266,0.320,0.290,1.030,11.390,1.560,1.270
8897496929,8897.496929,10.454025,0.320,0.280,1.030,11.500,1.440,1.310
8897504881,8897.504881,10.461977,0.320,0.280,1.020,11.630,1.530,1.270
8897512363,8897.512363,10.469459,0.330,0.280,1.030,11.540,1.630,1.330
8897519174,8897.519174,10.476270,0.330,0.280,1.030,11.500,1.570,1.190
8897527882,8897.527882,10.484978,0.310,0.280,1.030,11.400,1.560,1.280
8897534919,8897.534919,10.492015,0.330,0.280,1.020,11.530,1.570,1.250
8897541901,8897.541901,10.498997,0.320,0.290,1.020,11.450,1.630,1.370
8897549032,8897.549032,10.506128,0.320,0.280,1.030,11.270,1.570,1.240
8897555904,8897.555904,10.513000,0.320,0.290,1.030,11.530,1.740,1.480
8897562846,8897.562846,10.519942,0.320,0.290,1.030,11.540,1.620,1.280
8897568882,8897.568882,10.525978,0.330,0.280,1.020,11.470,1.760,1.370
8897575871,8897.575871,10.532967,0.320,0.280,1.030,11.620,1.560,1.340
8897581857,8897.581857,10.538953,0.320,0.290,1.030,11.390,1.680,1.280
8897587852,8897.587852,10.544948,0.310,0.290,1.020,11.390,1.540,1.400
8897593868,8897.593868,10.550964,0.320,0.280,1.020,11.470,1.570,1.440
8897599866,8897.599866,10.556962,0.320,0.280,1.030,11.590,1.600,1.300
8897605871,8897.605871,10.562967,0.320,0.290,1.030,11.600,1.440,1.300
8897616344,8897.616344,10.573440,0.330,0.280,1.020,11.450,1.440,1.250
8897623345,8897.623345,10.580441,0.330,0.280,1.020,11.450,1.590,1.300
8897629864,8897.629864,10.586960,0.320,0.290,1.020,11.480,1.480,1.360
8897635863,8897.635863,10.592959,0.320,0.280,1.030,11.530,1.650,1.470
8897643033,8897.643033,10.600129,0.320,0.290,1.030,11.510,1.470,1.150
8897649868,8897.649868,10.606964,0.320,0.290,1.040,11.570,1.540,1.340
8897656502,8897.656502,10.613598,0.320,0.290,1.030,11.450,1.590,1.250
8897662854,8897.662854,10.619950,0.320,0.290,1.020,11.420,1.680,1.330
8897668829,8897.668829,10.625925,0.320,0.280,1.020,11.540,1.680,1.390
8897674846,8897.674846,10.631942,0.330,0.290,1.020,11.440,1.620,1.300
8897684862,8897.684862,10.641958,0.320,0.280,1.010,11.470,1.740,1.480
8897690853,8897.690853,10.647949,0.320,0.290,1.030,11.450,1.510,1.300
8897698884,8897.698884,10.655980,0.320,0.280,1.030,11.590,1.730,1.420
8897704855,8897.704855,10.661951,0.330,0.290,1.030,11.500,1.570,1.310
8897710901,8897.710901,10.667997,0.310,0.280,1.030,11.540,1.620,1.270
8897719911,8897.719911,10.677007,0.320,0.290,1.040,11.480,1.680,1.400
8897730904,8897.730904,10.688000,0.330,0.290,1.030,11.440,1.440,1.220
8897736929,8897.736929,10.694025,0.320,0.290,1.030,11.560,1.710,1.340
8897744886,8897.744886,10.701982,0.330,0.280,1.030,11.560,1.540,1.280
8897751154,8897.751154,10.708250,0.320,0.280,1.030,11.540,1.630,1.340
8897757265,8897.757265,10.714361,0.320,0.280,1.020,11.630,1.500,1.370
8897763840,8897.763840,10.720936,0.330,0.280,1.020,11.590,1.710,1.270
8897769824,8897.769824,10.726920,0.330,0.290,1.030,11.400,1.620,1.280
8897775850,8897.775850,10.732946,0.320,0.280,1.020,11.450,1.680,1.420
8897782912,8897.782912,10.740008,0.320,0.280,1.030,11.620,1.510,1.300
8897789860,8897.789860,10.746956,0.330,0.280,1.020,11.530,1.530,1.510
8897795869,8897.795869,10.752965,0.320,0.280,1.020,11.600,1.560,1.370
8897801863,8897.801863,10.758959,0.320,0.290,1.040,11.470,1.620,1.280
8897808121,8897.808121,10.765217,0.320,0.280,1.040,11.570,1.500,1.340
8897814902,8897.814902,10.771998,0.320,0.290,1.030,11.570,1.820,1.300
8897822154,8897.822154,10.779250,0.320,0.290,1.020,11.630,1.600,1.300
8897830891,8897.830891,10.787987,0.320,0.290,1.030,11.420,1.530,1.220
8897836873,8897.836873,10.793969,0.320,0.280,1.030,11.450,1.570,1.370
8897843945,8897.843945,10.801041,0.320,0.290,1.020,11.480,1.680,1.370
8897851972,8897.851972,10.809068,0.320,0.290,1.030,11.480,1.630,1.330
8897858908,8897.858908,10.816004,0.320,0.290,1.030,11.690,1.630,1.220
8897868018,8897.868018,10.825114,0.320,0.280,1.040,11.450,1.660,1.270
8897873804,8897.873804,10.830900,0.320,0.280,1.030,11.390,1.690,1.340
8897879868,8897.879868,10.836964,0.320,0.290,1.030,11.440,1.560,1.240
8897885853,8897.885853,10.842949,0.320,0.290,1.020,11.440,1.630,1.360
8897891878,8897.891878,10.848974,0.320,0.290,1.030,11.530,1.680,1.280
8897898076,8897.898076,10.855172,0.320,0.280,1.030,11.510,1.560,1.300
8897904864,8897.904864,10.861960,0.320,0.280,1.040,11.450,1.660,1.250
8897910853,8897.910853,10.867949,0.320,0.290,1.030,11.560,1.560,1.240
8897919892,8897.919892,10.876988,0.330,0.290,1.030,11.480,1.500,1.470
8897928198,8897.928198,10.885294,0.320,0.290,1.040,11.470,1.680,1.220
8897934873,8897.934873,10.891969,0.320,0.280,1.030,11.420,1.650,1.210
8897940984,8897.940984,10.898080,0.320,0.280,1.030,11.400,1.450,1.360
8897948939,8897.948939,10.906035,0.320,0.290,1.030,11.590,1.630,1.210
8897956395,8897.956395,10.913491,0.330,0.290,1.030,11.480,1.500,1.390
8897962912,8897.962912,10.920008,0.330,0.280,1.030,11.560,1.760,1.300
8897968839,8897.968839,10.925935,0.320,0.280,1.030,11.630,1.540,1.280
8897974799,8897.974799,10.931895,0.320,0.290,1.030,11.480,1.650,1.280
8897982443,8897.982443,10.939539,0.320,0.280,1.030,11.470,1.560,1.330
8897988852,8897.988852,10.945948,0.320,0.290,1.030,11.450,1.680,1.270
8897996280,8897.996280,10.953376,0.320,0.290,1.020,11.510,1.570,1.160
8898003879,8898.003879,10.960975,0.320,0.280,1.030,11.540,1.480,1.360
8898009990,8898.009990,10.967086,0.320,0.290,1.040,11.390,1.630,1.270
8898017519,8898.017519,10.974615,0.330,0.290,1.030,11.570,1.450,1.390
8898026276,8898.026276,10.983372,0.320,0.290,1.020,11.530,1.540,1.270
8898033871,8898.033871,10.990967,0.320,0.290,1.030,11.500,1.710,1.360
8898039849,8898.039849,10.996945,0.330,0.280,1.030,11.590,1.530,1.270
8898047068,8898.047068,11.004164,0.320,0.280,1.030,11.440,1.620,1.180
8898053882,8898.053882,11.010978,0.320,0.280,1.030,11.630,1.710,1.220
8898062175,8898.062175,11.019271,0.320,0.290,1.030,11.480,1.620,1.360
8898069001,8898.069001,11.026097,0.320,0.280,1.030,11.560,1.540,1.370
8898075860,8898.075860,11.032956,0.320,0.290,1.020,11.500,1.730,1.240
8898082875,8898.082875,11.039971,0.320,0.290,1.030,11.600,1.500,1.310
8898088863,8898.088863,11.045959,0.320,0.290,1.020,11.630,1.560,1.370
8898094955,8898.094955,11.052051,0.320,0.290,1.030,11.390,1.540,1.100
8898106286,8898.106286,11.063382,0.320,0.280,1.020,11.450,1.660,1.480
8898113486,8898.113486,11.070582,0.320,0.280,1.040,11.540,1.560,1.300
8898119882,8898.119882,11.076978,0.330,0.290,1.030,11.560,1.540,1.310
8898126907,8898.126907,11.084003,0.320,0.290,1.030,11.400,1.630,1.210
8898133024,8898.133024,11.090120,0.320,0.290,1.030,11.630,1.620,1.250
8898139993,8898.139993,11.097089,0.320,0.280,1.020,11.510,1.600,1.330
8898146201,8898.146201,11.103297,0.320,0.290,1.030,11.510,1.420,1.370
8898152230,8898.152230,11.109326,0.320,0.290,1.030,11.510,1.560,1.300
8898158806,8898.158806,11.115902,0.320,0.280,1.030,11.540,1.600,1.310
8898164846,8898.164846,11.121942,0.320,0.280,1.020,11.440,1.500,1.240
8898170967,8898.170967,11.128063,0.320,0.290,1.020,11.500,1.620,1.270
8898176823,8898.176823,11.133919,0.330,0.280,1.030,11.400,1.510,1.250
8898182817,8898.182817,11.139913,0.320,0.290,1.030,11.480,1.600,1.400
8898189961,8898.189961,11.147057,0.320,0.290,1.030,11.570,1.560,1.240
8898197138,8898.197138,11.154234,0.320,0.280,1.030,11.600,1.500,1.240
8898203862,8898.203862,11.160958,0.330,0.290,1.030,11.540,1.630,1.300
8898209902,8898.209902,11.166998,0.320,0.280,1.030,11.560,1.680,1.370
8898216430,8898.216430,11.173526,0.320,0.290,1.020,11.540,1.600,1.240
8898223182,8898.223182,11.180278,0.330,0.280,1.030,11.420,1.620,1.310
8898232755,8898.232755,11.189851,0.330,0.290,1.020,11.620,1.680,1.310
8898240860,8898.240860,11.197956,0.320,0.290,1.030,11.480,1.570,1.300
8898246853,8898.246853,11.203949,0.320,0.280,1.030,11.510,1.570,1.210
8898253526,8898.253526,11.210622,0.320,0.290,1.030,11.620,1.590,1.370
8898259854,8898.259854,11.216950,0.320,0.290,1.030,11.480,1.650,1.250
8898266148,8898.266148,11.223244,0.320,0.280,1.030,11.340,1.560,1.330
8898273957,8898.273957,11.231053,0.320,0.290,1.030,11.650,1.530,1.250
8898279814,8898.279814,11.236910,0.320,0.280,1.030,11.510,1.620,1.340
8898285798,8898.285798,11.242894,0.320,0.290,1.020,11.400,1.560,1.360
8898293541,8898.293541,11.250637,0.320,0.280,1.020,11.530,1.480,1.300
8898299858,8898.299858,11.256954,0.320,0.290,1.020,11.450,1.510,1.370
8898305847,8898.305847,11.262943,0.320,0.290,1.020,11.470,1.630,1.240
8898311870,8898.311870,11.268966,0.320,0.280,1.030,11.620,1.650,1.340
8898317844,8898.317844,11.274940,0.330,0.280,1.030,11.540,1.660,1.160
8898323878,8898.323878,11.280974,0.330,0.290,1.030,11.440,1.540,1.240
8898331101,8898.331101,11.288197,0.330,0.290,1.030,11.560,1.570,1.330
8898339604,8898.339604,11.296700,0.320,0.280,1.040,11.650,1.590,1.270
8898347032,8898.347032,11.304128,0.320,0.280,1.030,11.480,1.730,1.390
8898353970,8898.353970,11.311066,0.320,0.290,1.030,11.620,1.620,1.330
8898360868,8898.360868,11.317964,0.320,0.290,1.030,11.420,1.470,1.340
8898367079,8898.367079,11.324175,0.320,0.290,1.030,11.530,1.630,1.300
8898374183,8898.374183,11.331279,0.320,0.280,1.030,11.470,1.470,1.390
8898380845,8898.380845,11.337941,0.320,0.290,1.030,11.530,1.740,1.180
8898386827,8898.386827,11.343923,0.320,0.280,1.030,11.620,1.530,1.280
8898393820,8898.393820,11.350916,0.320,0.290,1.030,11.420,1.650,1.390
8898399832,8898.399832,11.356928,0.320,0.290,1.020,11.470,1.650,1.390
8898406761,8898.406761,11.363857,0.310,0.290,1.030,11.510,1.480,1.160
8898412859,8898.412859,11.369955,0.320,0.290,1.030,11.530,1.630,1.330
8898418859,8898.418859,11.375955,0.330,0.290,1.030,11.590,1.440,1.360
8898424866,8898.424866,11.381962,0.320,0.280,1.030,11.480,1.400,1.240
8898431881,8898.431881,11.388977,0.320,0.280,1.020,11.500,1.480,1.330
8898439177,8898.439177,11.396273,0.320,0.280,1.030,11.480,1.540,1.330
8898446116,8898.446116,11.403212,0.320,0.280,1.030,11.480,1.660,1.250
8898452940,8898.452940,11.410036,0.320,0.290,1.030,11.500,1.480,1.330
8898458854,8898.458854,11.415950,0.320,0.290,1.030,11.370,1.770,1.310
8898466489,8898.466489,11.423585,0.320,0.290,1.030,11.560,1.600,1.360
8898472829,8898.472829,11.429925,0.320,0.280,1.020,11.590,1.690,1.470
8898479857,8898.479857,11.436953,0.320,0.290,1.030,11.400,1.540,1.400
8898485822,8898.485822,11.442918,0.330,0.290,1.020,11.630,1.740,1.310
8898491830,8898.491830,11.448926,0.320,0.290,1.030,11.510,1.600,1.340
8898499568,8898.499568,11.456664,0.320,0.290,1.030,11.590,1.450,1.440
8898507533,8898.507533,11.464629,0.320,0.290,1.030,11.470,1.660,1.300
8898514861,8898.514861,11.471957,0.320,0.280,1.030,11.480,1.650,1.210
8898520849,8898.520849,11.477945,0.320,0.290,1.020,11.480,1.590,1.340
8898526864,8898.526864,11.483960,0.320,0.280,1.030,11.560,1.620,1.390
8898532878,8898.532878,11.489974,0.320,0.280,1.020,11.470,1.680,1.220
8898539907,8898.539907,11.497003,0.320,0.290,1.030,11.560,1.590,1.330
8898548032,8898.548032,11.505128,0.320,0.290,1.030,11.470,1.690,1.270
8898555055,8898.555055,11.512151,0.320,0.280,1.030,11.480,1.650,1.400
8898561849,8898.561849,11.518945,0.320,0.290,1.030,11.500,1.570,1.360
8898569868,8898.569868,11.526964,0.320,0.290,1.030,11.450,1.600,1.240
8898575860,8898.575860,11.532956,0.320,0.290,1.030,11.470,1.540,1.210
8898581861,8898.581861,11.538957,0.320,0.290,1.020,11.560,1.600,1.480
8898587845,8898.587845,11.544941,0.320,0.290,1.030,11.600,1.560,1.310
8898593809,8898.593809,11.550905,0.320,0.290,1.030,11.400,1.530,1.340
8898601958,8898.601958,11.559054,0.320,0.290,1.030,11.400,1.390,1.250
8898607862,8898.607862,11.564958,0.320,0.290,1.030,11.570,1.650,1.360
8898613802,8898.613802,11.570898,0.320,0.280,1.030,11.540,1.540,1.450
8898619810,8898.619810,11.576906,0.330,0.280,1.020,11.390,1.660,1.250
8898630266,8898.630266,11.587362,0.330,0.290,1.030,11.600,1.530,1.390
8898636837,8898.636837,11.593933,0.330,0.290,1.040,11.620,1.530,1.240
8898644681,8898.644681,11.601777,0.320,0.290,1.020,11.440,1.710,1.280
8898651863,8898.651863,11.608959,0.320,0.290,1.030,11.480,1.680,1.330
8898657876,8898.657876,11.614972,0.320,0.290,1.020,11.560,1.540,1.150
8898666618,8898.666618,11.623714,0.330,0.280,1.030,11.440,1.630,1.360
8898672858,8898.672858,11.629954,0.320,0.280,1.030,11.660,1.560,1.310
8898678842,8898.678842,11.635938,0.330,0.280,1.030,11.560,1.600,1.390
8898684903,8898.684903,11.641999,0.320,0.280,1.040,11.540,1.530,1.270
8898690819,8898.690819,11.647915,0.320,0.290,1.030,11.620,1.690,1.240
8898696799,8898.696799,11.653895,0.320,0.280,1.020,11.360,1.740,1.190
8898702798,8898.702798,11.659894,0.320,0.290,1.030,11.560,1.620,1.360
8898708805,8898.708805,11.665901,0.320,0.290,1.020,11.540,1.590,1.220
8898714800,8898.714800,11.671896,0.320,0.280,1.020,11.400,1.600,1.390
8898736879,8898.736879,11.693975,0.320,0.290,1.040,11.450,1.710,1.250
8898743200,8898.743200,11.700296,0.320,0.290,1.020,11.510,1.270,1.360
8898750726,8898.750726,11.707822,0.330,0.280,1.030,11.570,1.480,1.440
8898756869,8898.756869,11.713965,0.320,0.290,1.030,11.630,1.500,1.340
8898763872,8898.763872,11.720968,0.320,0.290,1.030,11.510,1.470,1.300
8898771753,8898.771753,11.728849,0.320,0.280,1.030,11.570,1.570,1.420
8898777796,8898.777796,11.734892,0.320,0.280,1.020,11.420,1.510,1.330
8898783852,8898.783852,11.740948,0.320,0.280,1.030,11.450,1.730,1.270
8898789840,8898.789840,11.746936,0.320,0.290,1.020,11.500,1.570,1.190
8898796155,8898.796155,11.753251,0.320,0.290,1.030,11.510,1.590,1.340
8898801859,8898.801859,11.758955,0.320,0.280,1.030,11.390,1.650,1.340
8898810147,8898.810147,11.767243,0.320,0.290,1.020,11.590,1.500,1.300
8898816866,8898.816866,11.773962,0.330,0.280,1.030,11.340,1.630,1.270
8898822859,8898.822859,11.779955,0.320,0.290,1.020,11.570,1.480,1.300
8898828872,8898.828872,11.785968,0.320,0.290,1.020,11.440,1.600,1.280
8898834862,8898.834862,11.791958,0.320,0.290,1.020,11.570,1.570,1.250
8898841887,8898.841887,11.798983,0.330,0.280,1.030,11.530,1.650,1.280
8898848931,8898.848931,11.806027,0.320,0.280,1.030,11.510,1.600,1.250
8898857632,8898.857632,11.814728,0.320,0.280,1.030,11.600,1.560,1.240
8898865777,8898.865777,11.822873,0.330,0.290,1.030,11.470,1.510,1.190
8898871868,8898.871868,11.828964,0.320,0.290,1.030,11.540,1.650,1.330
8898878890,8898.878890,11.835986,0.320,0.290,1.040,11.480,1.680,1.330
8898884863,8898.884863,11.841959,0.330,0.290,1.030,11.590,1.600,1.190
8898890862,8898.890862,11.847958,0.320,0.290,1.030,11.500,1.590,1.310
8898898902,8898.898902,11.855998,0.320,0.290,1.030,11.650,1.540,1.390
8898904907,8898.904907,11.862003,0.320,0.290,1.020,11.440,1.570,1.330
8898910859,8898.910859,11.867955,0.320,0.290,1.030,11.540,1.530,1.110
8898920879,8898.920879,11.877975,0.330,0.290,1.020,11.590,1.570,1.280
8898927408,8898.927408,11.884504,0.320,0.290,1.030,11.600,1.590,1.240
8898933861,8898.933861,11.890957,0.320,0.290,1.020,11.450,1.530,1.280
8898939857,8898.939857,11.896953,0.320,0.280,1.020,11.420,1.740,1.270
8898946237,8898.946237,11.903333,0.320,0.280,1.020,11.400,1.560,1.270
8898952997,8898.952997,11.910093,0.330,0.280,1.020,11.450,1.650,1.270
8898958831,8898.958831,11.915927,0.320,0.280,1.040,11.500,1.480,1.340
8898964827,8898.964827,11.921923,0.330,0.280,1.020,11.570,1.600,1.480
8898971788,8898.971788,11.928884,0.320,0.280,1.040,11.480,1.570,1.310
8898979860,8898.979860,11.936956,0.320,0.290,1.030,11.530,1.510,1.360
8898985858,8898.985858,11.942954,0.320,0.290,1.020,11.530,1.570,1.300
8898991868,8898.991868,11.948964,0.320,0.290,1.030,11.650,1.500,1.310
8898998862,8898.998862,11.955958,0.320,0.290,1.030,11.500,1.480,1.210
8899004902,8899.004902,11.961998,0.320,0.290,1.030,11.420,1.500,1.280
8899014014,8899.014014,11.971110,0.320,0.290,1.030,11.620,1.660,1.130
8899021869,8899.021869,11.978965,0.320,0.290,1.030,11.530,1.570,1.310
8899028237,8899.028237,11.985333,0.330,0.280,1.030,11.600,1.690,1.210
8899034873,8899.034873,11.991969,0.320,0.290,1.030,11.500,1.440,1.300
8899040874,8899.040874,11.997970,0.330,0.290,1.020,11.600,1.570,1.360
8899048620,8899.048620,12.005716,0.320,0.280,1.030,11.440,1.510,1.190
8899054863,8899.054863,12.011959,0.330,0.280,1.030,11.560,1.600,1.210
8899060871,8899.060871,12.017967,0.320,0.280,1.030,11.390,1.530,1.390
8899066848,8899.066848,12.023944,0.320,0.290,1.030,11.400,1.660,1.370
8899072847,8899.072847,12.029943,0.320,0.290,1.030,11.760,1.480,1.250
8899078851,8899.078851,12.035947,0.320,0.290,1.030,11.530,1.540,1.300
8899087222,8899.087222,12.044318,0.320,0.280,1.030,11.420,1.590,1.280
8899093856,8899.093856,12.050952,0.320,0.280,1.030,11.470,1.510,1.300
8899099824,8899.099824,12.056920,0.320,0.290,1.030,11.530,1.660,1.370
8899106064,8899.106064,12.063160,0.320,0.280,1.030,11.540,1.710,1.390
8899112925,8899.112925,12.070021,0.320,0.280,1.030,11.500,1.420,1.180
8899118890,8899.118890,12.075986,0.330,0.290,1.030,11.620,1.500,1.360
8899129559,8899.129559,12.086655,0.320,0.280,1.040,11.540,1.470,1.250
8899135854,8899.135854,12.092950,0.320,0.280,1.020,11.690,1.590,1.270
8899141864,8899.141864,12.098960,0.320,0.280,1.030,11.540,1.560,1.270
8899148894,8899.148894,12.105990,0.320,0.280,1.020,11.590,1.690,1.360
8899156158,8899.156158,12.113254,0.330,0.290,1.020,11.500,1.600,1.420
8899161931,8899.161931,12.119027,0.330,0.290,1.030,11.540,1.590,1.310
8899168453,8899.168453,12.125549,0.330,0.290,1.030,11.510,1.660,1.220
8899174847,8899.174847,12.131943,0.320,0.290,1.030,11.660,1.600,1.330
8899180837,8899.180837,12.137933,0.320,0.290,1.030,11.560,1.450,1.330
8899186858,8899.186858,12.143954,0.330,0.290,1.020,11.560,1.570,1.300
8899193911,8899.193911,12.151007,0.320,0.290,1.030,11.370,1.600,1.340
8899200947,8899.200947,12.158043,0.330,0.290,1.030,11.590,1.620,1.400
8899207876,8899.207876,12.164972,0.330,0.280,1.030,11.730,1.590,1.310
8899215914,8899.215914,12.173010,0.330,0.290,1.030,11.510,1.400,1.180
8899222855,8899.222855,12.179951,0.320,0.290,1.020,11.650,1.530,1.420
8899228857,8899.228857,12.185953,0.320,0.290,1.030,11.450,1.650,1.340
8899234865,8899.234865,12.191961,0.320,0.280,1.020,11.500,1.470,1.210
8899240853,8899.240853,12.197949,0.320,0.280,1.030,11.500,1.600,1.160
8899248997,8899.248997,12.206093,0.320,0.290,1.030,11.560,1.590,1.310
8899256902,8899.256902,12.213998,0.320,0.290,1.030,11.310,1.480,1.220
8899262894,8899.262894,12.219990,0.320,0.280,1.020,11.420,1.470,1.280
8899269868,8899.269868,12.226964,0.320,0.290,1.020,11.440,1.570,1.310
8899275892,8899.275892,12.232988,0.320,0.290,1.020,11.590,1.680,1.240
8899281938,8899.281938,12.239034,0.320,0.280,1.030,11.620,1.650,1.420
8899291284,8899.291284,12.248380,0.320,0.280,1.020,11.570,1.570,1.280
8899297899,8899.297899,12.254995,0.330,0.280,1.030,11.500,1.560,1.400
8899303821,8899.303821,12.260917,0.320,0.290,1.030,11.470,1.630,1.270
8899310620,8899.310620,12.267716,0.320,0.290,1.030,11.470,1.660,1.210
8899316976,8899.316976,12.274072,0.320,0.290,1.030,11.330,1.630,1.280
8899323967,8899.323967,12.281063,0.320,0.290,1.030,11.480,1.600,1.420
8899329852,8899.329852,12.286948,0.320,0.280,1.030,11.470,1.620,1.300
8899335857,8899.335857,12.292953,0.320,0.290,1.030,11.530,1.650,1.330
8899344033,8899.344033,12.301129,0.320,0.290,1.030,11.680,1.600,1.240
8899350910,8899.350910,12.308006,0.320,0.290,1.030,11.540,1.480,1.440
8899356908,8899.356908,12.314004,0.330,0.280,1.030,11.570,1.510,1.420
8899362871,8899.362871,12.319967,0.330,0.280,1.020,11.480,1.630,1.330
8899369877,8899.369877,12.326973,0.320,0.290,1.020,11.450,1.600,1.300
8899376167,8899.376167,12.333263,0.320,0.280,1.030,11.590,1.730,1.360
8899382878,8899.382878,12.339974,0.330,0.290,1.030,11.480,1.570,1.250
8899392043,8899.392043,12.349139,0.320,0.290,1.030,11.480,1.690,1.310
8899397863,8899.397863,12.354959,0.320,0.290,1.020,11.340,1.590,1.280
8899406160,8899.406160,12.363256,0.320,0.280,1.030,11.560,1.800,1.340
8899412863,8899.412863,12.369959,0.320,0.290,1.020,11.570,1.560,1.250
8899418895,8899.418895,12.375991,0.320,0.290,1.040,11.440,1.600,1.210
8899426891,8899.426891,12.383987,0.320,0.290,1.030,11.420,1.660,1.150
8899435429,8899.435429,12.392525,0.330,0.280,1.030,11.530,1.680,1.360
8899441867,8899.441867,12.398963,0.320,0.280,1.020,11.420,1.590,1.390
8899447951,8899.447951,12.405047,0.320,0.280,1.030,11.420,1.630,1.280
8899453886,8899.453886,12.410982,0.320,0.280,1.020,11.470,1.680,1.420
8899460279,8899.460279,12.417375,0.320,0.290,1.020,11.570,1.620,1.330
8899466902,8899.466902,12.423998,0.320,0.290,1.030,11.540,1.540,1.280
8899474865,8899.474865,12.431961,0.320,0.290,1.020,11.660,1.560,1.270
8899480861,8899.480861,12.437957,0.330,0.280,1.030,11.450,1.680,1.310
8899488979,8899.488979,12.446075,0.320,0.290,1.030,11.730,1.710,1.310
8899494863,8899.494863,12.451959,0.320,0.290,1.020,11.470,1.470,1.270
8899502023,8899.502023,12.459119,0.320,0.290,1.030,11.570,1.530,1.270
8899507853,8899.507853,12.464949,0.320,0.280,1.030,11.370,1.500,1.500
